* Sea-Bird SBE 19plus V2 Data File:
* FileName = D:\ACEX\brutos\MCTV020.hex
* Software Version Seasave V 7.17
* Temperature SN = 6161
* Conductivity SN = 6161
* System UpLoad Time = Jun 17 2012 22:10:57
** H38 
** NHo Cruzeiro do Sul 
** 222 
** MCTV ACEx 
**   020
**   31 44.17S
**   049 30.04W
**   18/06/2012 01:10Z
**   635
** 19P51959-6161 
**   1T Germano Filho
# nquan = 14
# nvalues = 436                         
# units = specified
# name 0 = scan: Scan Count
# name 1 = timeJ: Julian Days
# name 2 = dz/dtM: Descent Rate [m/s]
# name 3 = prdM: Pressure, Strain Gauge [db]
# name 4 = tv290C: Temperature [ITS-90, deg C]
# name 5 = c0S/m: Conductivity [S/m]
# name 6 = depSM: Depth [salt water, m]
# name 7 = flSP: Fluorescence, Seapoint
# name 8 = potemp090C: Potential Temperature [ITS-90, deg C]
# name 9 = sal00: Salinity [PSU]
# name 10 = density00: Density [density, Kg/m^3]
# name 11 = sigma-é00: Density [sigma-theta, Kg/m^3]
# name 12 = nbin: number of scans per bin
# name 13 = flag: flag
# span 0 =        404,       3020       
# span 1 = 169.925438, 169.933006       
# span 2 =     -0.095,      1.865       
# span 3 =      5.179,    475.831       
# span 4 =     7.1992,    21.0461       
# span 5 =   3.527935,   5.089521       
# span 6 =      5.000,    440.000       
# span 7 = -9.780e-06, 2.8093e-04       
# span 8 =     7.1534,    21.0292       
# span 9 =    34.4752,    36.5100       
# span 10 =  1025.1984,  1029.2146      
# span 11 =    25.1669,    27.0501      
# span 12 =          2,         27      
# span 13 = 0.0000e+00, 0.0000e+00      
# interval = meters: 1                  
# start_time = Jun 17 2012 22:10:57
# bad_flag = -9.990e-29
# sensor 0 = Frequency 0  temperature, 6161, 21-Oct-08
# sensor 1 = Frequency 1  conductivity, 6161, 21-Oct-08, cpcor = -9.5700e-08
# sensor 2 = Pressure Number
# sensor 3 = Extrnl Volt  0  Fluorometer, Seapoint, primary
# sensor 4 = Extrnl Volt  2  altimeter
# datcnv_date = Jun 17 2012 23:26:39, 7.17
# datcnv_in = D:\ACEX\brutos\MCTV020.hex D:\ACEX\arqconfig\AC6161.con
# datcnv_skipover = 347
# filter_date = Jun 17 2012 23:28:18, 7.17
# filter_in = D:\ACEX\dat cnv\MCTV020.cnv
# filter_low_pass_tc_A = 1.000
# filter_low_pass_tc_B = 0.000
# filter_low_pass_A_vars = prdM tv290C
# filter_low_pass_B_vars = c0S/m
# alignctd_date = Jun 17 2012 23:28:47, 7.17
# alignctd_in = D:\ACEX\filter\MCTV020.cnv
# alignctd_adv = tv290C 0.500                                                                                                                                                                                                        
# wildedit_date = Jun 17 2012 23:29:08, 7.17
# wildedit_in = D:\ACEX\align\MCTV020.cnv
# wildedit_pass1_nstd = 2.0
# wildedit_pass2_nstd = 20.0
# wildedit_pass2_mindelta = 1.000e+002
# wildedit_npoint = 1000
# wildedit_vars = dz/dtM prdM tv290C c0S/m flSP
# wildedit_excl_bad_scans = yes
# celltm_date = Jun 17 2012 23:29:26, 7.17
# celltm_in = D:\ACEX\wildedit\MCTV020.cnv
# celltm_alpha = 0.0400, 0.0000
# celltm_tau = 8.0000, 0.0000
# celltm_temp_sensor_use_for_cond = primary, 
# loopedit_date = Jun 17 2012 23:29:47, 7.17
# loopedit_in = D:\ACEX\celltm\MCTV020.cnv
# loopedit_minVelocity = 0.250                                                                                            
# loopedit_surfaceSoak: minDepth = 5.0, maxDepth = 20, useDeckPress = 1                                                   
# loopedit_excl_bad_scans = yes
# Derive_date = Jun 17 2012 23:30:07, 7.17
# Derive_in = D:\ACEX\loopedit\MCTV020.cnv D:\ACEX\arqconfig\AC6161.con
# binavg_date = Jun 17 2012 23:30:23, 7.17
# binavg_in = D:\ACEX\derive\MCTV020.cnv
# binavg_bintype = meters
# binavg_binsize = 1
# binavg_excl_bad_scans = yes
# binavg_skipover = 0
# binavg_surface_bin = no, min = 0.000, max = 0.000, value = 0.000
# split_date = Jun 17 2012 23:30:43, 7.17
# split_in = D:\ACEX\binavg\MCTV020.cnv
# split_excl_bad_scans = yes
# file_type = ascii
*END*
        404 169.925438      0.198      5.179    20.2399   4.893094      5.000 0.0000e+00    20.2390    35.6262  1025.1984    25.1760          7 0.0000e+00
        411 169.925457      0.540      6.026    20.2389   4.893028      6.000 0.0000e+00    20.2377    35.6262  1025.2024    25.1764          5 0.0000e+00
        427 169.925505      0.376      7.064    20.2368   4.892744      7.000 0.0000e+00    20.2355    35.6253  1025.2067    25.1763         10 0.0000e+00
        439 169.925538      0.649      8.024    20.2369   4.892894      8.000 0.0000e+00    20.2354    35.6261  1025.2115    25.1769          6 0.0000e+00
        447 169.925561      0.549      8.995    20.2396   4.892742      9.000 0.0000e+00    20.2380    35.6222  1025.2120    25.1732          9 0.0000e+00
        461 169.925601      0.235     10.106    20.2490   4.894664     10.000 0.0000e+00    20.2471    35.6296  1025.2200    25.1764          8 0.0000e+00
        477 169.925649      0.208     11.225    20.2631   4.896809     11.000 0.0000e+00    20.2610    35.6348  1025.2251    25.1767          9 0.0000e+00
        490 169.925687      0.468     12.272    20.2735   4.900023     12.000 0.0000e+00    20.2712    35.6519  1025.2399    25.1870          2 0.0000e+00
        492 169.925692      1.145     12.776    20.2705   4.898287     13.000 0.0000e+00    20.2681    35.6401  1025.2340    25.1789          3 0.0000e+00
        508 169.925738      1.065     13.802    20.2715   4.896554     14.000 0.0000e+00    20.2689    35.6247  1025.2264    25.1669          5 0.0000e+00
        524 169.925785      0.570     15.006    20.3072   4.905899     15.000 0.0000e+00    20.3044    35.6705  1025.2570    25.1923          9 0.0000e+00
        536 169.925819      0.549     16.041    20.3247   4.907702     16.000 0.0000e+00    20.3217    35.6700  1025.2564    25.1873          8 0.0000e+00
        548 169.925854      0.284     17.167    20.3434   4.911174     17.000 0.0000e+00    20.3402    35.6821  1025.2656    25.1917         12 0.0000e+00
        556 169.925878      0.493     18.037    20.3764   4.917367     18.000 0.0000e+00    20.3731    35.7044  1025.2776    25.1999          9 0.0000e+00
        573 169.925925      0.207     19.291    20.4410   4.931140     19.000 0.0000e+00    20.4374    35.7617  1025.3094    25.2263          9 0.0000e+00
        579 169.925943      0.574     20.184    20.4444   4.931796     20.000 0.0000e+00    20.4406    35.7638  1025.3140    25.2270          5 0.0000e+00
        587 169.925966      0.612     21.032    20.4438   4.931352     21.000 0.0000e+00    20.4399    35.7604  1025.3152    25.2246          7 0.0000e+00
        603 169.926012      0.449     22.171    20.4386   4.929514     22.000 0.0000e+00    20.4344    35.7495  1025.3132    25.2178          6 0.0000e+00
        612 169.926039      0.407     23.206    20.4449   4.930920     23.000 0.0000e+00    20.4405    35.7552  1025.3204    25.2205         12 0.0000e+00
        619 169.926060      0.539     24.147    20.4564   4.934639     24.000 0.0000e+00    20.4518    35.7755  1025.3369    25.2329          4 0.0000e+00
        635 169.926105      0.517     25.192    20.4661   4.935987     25.000 0.0000e+00    20.4613    35.7779  1025.3407    25.2322          7 0.0000e+00
        644 169.926132      0.928     26.125    20.4702   4.937268     26.000 0.0000e+00    20.4652    35.7845  1025.3487    25.2362          4 0.0000e+00
        653 169.926159      0.702     27.089    20.4727   4.937529     27.000 0.0000e+00    20.4676    35.7841  1025.3519    25.2353         10 0.0000e+00
        674 169.926217      0.267     28.485    20.4768   4.937968     28.000 0.0000e+00    20.4714    35.7837  1025.3566    25.2339          4 0.0000e+00
        676 169.926223      0.861     29.104    20.4782   4.938978     29.000 0.0000e+00    20.4727    35.7906  1025.3641    25.2388          4 0.0000e+00
        685 169.926249      0.674     30.036    20.4793   4.939038     30.000 0.0000e+00    20.4737    35.7897  1025.3672    25.2379          8 0.0000e+00
        701 169.926296      0.369     31.254    20.4791   4.938918     31.000 0.0000e+00    20.4732    35.7885  1025.3717    25.2371         12 0.0000e+00
        710 169.926323      0.436     32.326    20.4784   4.938880     32.000 0.0000e+00    20.4723    35.7884  1025.3765    25.2373          5 0.0000e+00
        715 169.926337      0.767     33.098    20.4788   4.939390     33.000 0.0000e+00    20.4725    35.7920  1025.3824    25.2399          5 0.0000e+00
        726 169.926368      0.334     34.224    20.4796   4.939789     34.000 0.0000e+00    20.4732    35.7941  1025.3888    25.2414         15 0.0000e+00
        736 169.926399      0.415     35.214    20.4986   4.942032     35.000 0.0000e+00    20.4919    35.7960  1025.3894    25.2378         11 0.0000e+00
        751 169.926440      0.145     36.552    20.5835   4.951007     36.000 0.0000e+00    20.5766    35.7967  1025.3728    25.2156          5 0.0000e+00
        753 169.926448      0.773     37.179    20.6598   4.971652     37.000 0.0000e+00    20.6527    35.8996  1025.4334    25.2734          4 0.0000e+00
        761 169.926471      0.576     38.154    20.7988   5.004398     38.000 0.0000e+00    20.7915    36.0470  1025.5121    25.3481         10 0.0000e+00
        772 169.926502      0.486     39.178    20.8892   5.018444     39.000 0.0000e+00    20.8817    36.0837  1025.5199    25.3515          6 0.0000e+00
        788 169.926548      0.211     40.565    20.9205   5.024788     40.000 0.0000e+00    20.9128    36.1079  1025.5358    25.3615          5 0.0000e+00
        791 169.926557      0.858     41.222    20.9173   5.024328     41.000 0.0000e+00    20.9094    36.1067  1025.5385    25.3615          3 0.0000e+00
        804 169.926594      0.637     42.266    20.9145   5.023806     42.000 0.0000e+00    20.9064    36.1044  1025.5422    25.3606          9 0.0000e+00
        816 169.926629      0.837     43.337    20.9123   5.024319     43.000 0.0000e+00    20.9040    36.1101  1025.5518    25.3655          3 0.0000e+00
        820 169.926640      1.058     44.118    20.9084   5.024038     44.000 0.0000e+00    20.9000    36.1108  1025.5568    25.3672          5 0.0000e+00
        833 169.926679      0.418     45.318    20.8919   5.021544     45.000 0.0000e+00    20.8832    36.1043  1025.5615    25.3668          9 0.0000e+00
        844 169.926710      0.688     46.287    20.8796   5.019190     46.000 0.0000e+00    20.8707    36.0953  1025.5623    25.3633          4 0.0000e+00
        854 169.926739      0.499     47.327    20.8756   5.019891     47.000 0.0000e+00    20.8666    36.1040  1025.5745    25.3711         10 0.0000e+00
        868 169.926779      0.352     48.619    20.8760   5.020338     48.000 0.0000e+00    20.8667    36.1068  1025.5821    25.3732          3 0.0000e+00
        870 169.926786      0.954     49.251    20.8771   5.020620     49.000 0.0000e+00    20.8676    36.1079  1025.5854    25.3738          3 0.0000e+00
        883 169.926823      0.613     50.303    20.8805   5.021232     50.000 0.0000e+00    20.8708    36.1096  1025.5904    25.3742         10 0.0000e+00
        898 169.926865      0.683     51.456    20.8850   5.021652     51.000 0.0000e+00    20.8752    36.1087  1025.5934    25.3724          4 0.0000e+00
        901 169.926874      1.022     52.158    20.8889   5.022902     52.000 0.0000e+00    20.8790    36.1153  1025.6004    25.3763          4 0.0000e+00
        912 169.926906      0.392     53.323    20.8966   5.025153     53.000 0.0000e+00    20.8864    36.1265  1025.6120    25.3829         11 0.0000e+00
        922 169.926935      0.559     54.366    20.8888   5.024254     54.000 0.0000e+00    20.8784    36.1255  1025.6178    25.3842          7 0.0000e+00
        929 169.926957      0.549     55.319    20.8816   5.023027     55.000 0.0000e+00    20.8710    36.1213  1025.6208    25.3831          8 0.0000e+00
        939 169.926986      0.376     56.427    20.8812   5.028959     56.000 0.0000e+00    20.8704    36.1693  1025.6622    25.4198         10 0.0000e+00
        946 169.927006      0.570     57.301    20.8542   5.024548     57.000 0.0000e+00    20.8432    36.1563  1025.6635    25.4173          6 0.0000e+00
        963 169.927056      0.186     58.634    20.8230   5.020239     58.000 0.0000e+00    20.8118    36.1474  1025.6711    25.4191          8 0.0000e+00
        968 169.927070      0.764     59.410    20.8367   5.025632     59.000 0.0000e+00    20.8254    36.1791  1025.6948    25.4396          3 0.0000e+00
        972 169.927081      1.114     60.149    20.8450   5.027390     60.000 0.0000e+00    20.8335    36.1860  1025.7010    25.4426          4 0.0000e+00
        985 169.927118      0.415     61.337    20.8549   5.028835     61.000 0.0000e+00    20.8432    36.1889  1025.7057    25.4422         12 0.0000e+00
       1000 169.927161      0.288     62.594    20.8540   5.029250     62.000 0.0000e+00    20.8420    36.1926  1025.7142    25.4453         10 0.0000e+00
       1005 169.927176      0.642     63.485    20.8449   5.027906     63.000 0.0000e+00    20.8328    36.1891  1025.7179    25.4451          4 0.0000e+00
       1009 169.927188      0.902     64.223    20.8369   5.026528     64.000 0.0000e+00    20.8246    36.1845  1025.7198    25.4439          5 0.0000e+00
       1026 169.927237      0.628     65.402    20.8247   5.024968     65.000 0.0000e+00    20.8121    36.1818  1025.7262    25.4452          5 0.0000e+00
       1035 169.927262      1.048     66.259    20.8224   5.024829     66.000 0.0000e+00    20.8097    36.1824  1025.7310    25.4463          4 0.0000e+00
       1045 169.927291      0.397     67.427    20.8206   5.025325     67.000 0.0000e+00    20.8077    36.1875  1025.7404    25.4508         13 0.0000e+00
       1054 169.927317      0.607     68.332    20.8203   5.025470     68.000 0.0000e+00    20.8073    36.1885  1025.7453    25.4517          6 0.0000e+00
       1073 169.927372      0.284     69.676    20.8233   5.025502     69.000 0.0000e+00    20.8100    36.1858  1025.7482    25.4489          6 0.0000e+00
       1078 169.927386      0.783     70.493    20.8304   5.026361     70.000 0.0000e+00    20.8169    36.1864  1025.7503    25.4474          4 0.0000e+00
       1082 169.927398      0.977     71.303    20.8438   5.033622     71.000 0.0000e+00    20.8302    36.2335  1025.7860    25.4797          4 0.0000e+00
       1098 169.927444      0.727     72.407    20.8647   5.038695     72.000 0.0000e+00    20.8509    36.2564  1025.8025    25.4915          6 0.0000e+00
       1107 169.927470      1.233     73.185    20.8730   5.038970     73.000 0.0000e+00    20.8590    36.2512  1025.7997    25.4854          3 0.0000e+00
       1122 169.927514      0.826     74.388    20.8922   5.044241     74.000 0.0000e+00    20.8779    36.2771  1025.8194    25.4999          5 0.0000e+00
       1130 169.927538      1.124     75.288    20.9009   5.046076     75.000 0.0000e+00    20.8865    36.2841  1025.8263    25.5030          4 0.0000e+00
       1145 169.927581      0.545     76.590    20.9194   5.048637     76.000 0.0000e+00    20.9047    36.2887  1025.8303    25.5014          7 0.0000e+00
       1153 169.927605      0.893     77.579    20.9397   5.052116     77.000 0.0000e+00    20.9247    36.2991  1025.8370    25.5040          3 0.0000e+00
       1157 169.927615      1.271     78.303    20.9581   5.056053     78.000 0.0000e+00    20.9430    36.3150  1025.8472    25.5110          3 0.0000e+00
       1168 169.927649      0.647     79.508    20.9994   5.066429     79.000 0.0000e+00    20.9841    36.3632  1025.8777    25.5365         10 0.0000e+00
       1180 169.927682      0.709     80.669    21.0160   5.068694     80.000 0.0000e+00    21.0005    36.3669  1025.8810    25.5348          3 0.0000e+00
       1184 169.927693      1.117     81.446    21.0197   5.069002     81.000 0.0000e+00    21.0040    36.3660  1025.8827    25.5332          3 0.0000e+00
       1188 169.927706      1.096     82.340    21.0254   5.071071     82.000 0.0000e+00    21.0095    36.3774  1025.8938    25.5404          6 0.0000e+00
       1198 169.927733      0.242     83.816    21.0316   5.072827     83.000 0.0000e+00    21.0155    36.3858  1025.9048    25.5451          8 0.0000e+00
       1202 169.927745      0.712     84.637    21.0278   5.070990     84.000 0.0000e+00    21.0115    36.3739  1025.9003    25.5371          4 0.0000e+00
       1205 169.927755      1.087     85.380    21.0289   5.071365     85.000 0.0000e+00    21.0124    36.3758  1025.9047    25.5383          3 0.0000e+00
       1214 169.927781      0.477     86.550    21.0373   5.073346     86.000 0.0000e+00    21.0206    36.3842  1025.9138    25.5424         15 0.0000e+00
       1223 169.927808      0.540     87.692    21.0461   5.076107     87.000 0.0000e+00    21.0292    36.3985  1025.9273    25.5510          4 0.0000e+00
       1228 169.927821      0.860     88.506    21.0435   5.077423     88.000 0.0000e+00    21.0265    36.4110  1025.9411    25.5613          5 0.0000e+00
       1235 169.927842      0.617     89.503    21.0218   5.073782     89.000 0.0000e+00    21.0045    36.3998  1025.9429    25.5588         11 0.0000e+00
       1247 169.927876      0.265     90.720    21.0020   5.072073     90.000 0.0000e+00    20.9846    36.4025  1025.9556    25.5663          8 0.0000e+00
       1253 169.927895      0.568     91.579    21.0020   5.072411     91.000 0.0000e+00    20.9844    36.4049  1025.9612    25.5682          8 0.0000e+00
       1262 169.927921      0.432     92.647    21.0037   5.073397     92.000 0.0000e+00    20.9858    36.4111  1025.9701    25.5725          9 0.0000e+00
       1284 169.927982      0.403     93.608    21.0106   5.074758     93.000 0.0000e+00    20.9925    36.4158  1025.9760    25.5743          9 0.0000e+00
       1346 169.928164      0.344     94.784    21.0276   5.078301     94.000 0.0000e+00    21.0094    36.4294  1025.9867    25.5800          5 0.0000e+00
       1355 169.928187      0.511     95.646    21.0312   5.079495     95.000 0.0000e+00    21.0128    36.4357  1025.9942    25.5839          9 0.0000e+00
       1373 169.928240      0.344     97.026    21.0291   5.080096     96.000 0.0000e+00    21.0104    36.4418  1026.0055    25.5892          4 0.0000e+00
       1376 169.928248      0.839     97.909    21.0222   5.079090     97.000 0.0000e+00    21.0033    36.4393  1026.0093    25.5892          4 0.0000e+00
       1379 169.928257      1.135     98.779    21.0158   5.078480     98.000 0.0000e+00    20.9967    36.4396  1026.0151    25.5912          2 0.0000e+00
       1381 169.928264      1.361     99.571    21.0099   5.077048     99.000 0.0000e+00    20.9907    36.4327  1026.0149    25.5877          3 0.0000e+00
       1384 169.928272      1.506    100.359    21.0042   5.076713    100.000 0.0000e+00    20.9848    36.4346  1026.0213    25.5907          3 0.0000e+00
       1390 169.928291      0.821    101.586    20.9955   5.076100    101.000 0.0000e+00    20.9759    36.4367  1026.0306    25.5947         11 0.0000e+00
       1399 169.928316      0.329    103.016    20.9962   5.076797    102.000 0.0000e+00    20.9764    36.4412  1026.0400    25.5980          4 0.0000e+00
       1402 169.928325      0.939    103.739    21.0026   5.077803    103.000 0.0000e+00    20.9826    36.4436  1026.0432    25.5981          3 0.0000e+00
       1405 169.928333      1.269    104.543    21.0125   5.080304    104.000 0.0000e+00    20.9924    36.4550  1026.0527    25.6042          3 0.0000e+00
       1410 169.928348      0.995    105.574    21.0312   5.085492    105.000 0.0000e+00    21.0108    36.4805  1026.0714    25.6186          8 0.0000e+00
       1418 169.928371      0.434    106.978    21.0451   5.089521    106.000 0.0000e+00    21.0245    36.5006  1026.0890    25.6301          6 0.0000e+00
       1422 169.928382      0.755    107.939    21.0352   5.089191    107.000 0.0000e+00    21.0144    36.5061  1026.1001    25.6371          3 0.0000e+00
       1425 169.928391      1.104    108.795    21.0167   5.087758    108.000 0.0000e+00    20.9958    36.5100  1026.1119    25.6452          3 0.0000e+00
       1428 169.928399      1.326    109.640    20.9871   5.083831    109.000 0.0000e+00    20.9660    36.5034  1026.1186    25.6483          3 0.0000e+00
       1431 169.928409      1.360    110.522    20.9391   5.079387    110.000 0.0000e+00    20.9178    36.5082  1026.1394    25.6652          3 0.0000e+00
       1436 169.928422      1.037    111.527    20.8261   5.058374    111.000 0.0000e+00    20.8047    36.4345  1026.1186    25.6399          7 0.0000e+00
       1445 169.928449      0.373    112.882    20.6531   5.033862    112.000 0.0000e+00    20.6316    36.3834  1026.1329    25.6479          9 0.0000e+00
       1452 169.928468      0.568    114.075    20.5727   5.026944    113.000 0.0000e+00    20.5511    36.3956  1026.1692    25.6790          5 0.0000e+00
       1455 169.928478      0.880    115.031    20.5174   5.022312    114.000 0.0000e+00    20.4956    36.4051  1026.1956    25.7012          3 0.0000e+00
       1458 169.928486      1.184    115.875    20.4592   5.014935    115.000 0.0000e+00    20.4373    36.3946  1026.2071    25.7090          2 0.0000e+00
       1460 169.928493      1.448    116.696    20.3869   5.006581    116.000 0.0000e+00    20.3649    36.3883  1026.2254    25.7236          3 0.0000e+00
       1463 169.928501      1.552    117.550    20.2864   4.993750    117.000 0.0000e+00    20.2643    36.3696  1026.2420    25.7363          3 0.0000e+00
       1467 169.928512      1.326    118.519    20.0966   4.964875    118.000 0.0000e+00    20.0745    36.2956  1026.2407    25.7306          5 0.0000e+00
       1474 169.928532      0.599    119.797    19.7954   4.909185    119.000 0.0000e+00    19.7733    36.0961  1026.1745    25.6580          7 0.0000e+00
       1480 169.928550      0.628    120.814    19.7161   4.910759    120.000 0.0000e+00    19.6938    36.1770  1026.2616    25.7408          7 0.0000e+00
       1487 169.928572      0.524    122.065    19.6858   4.910227    121.000 0.0000e+00    19.6633    36.1983  1026.2913    25.7650          6 0.0000e+00
       1491 169.928583      0.769    123.020    19.6795   4.911085    122.000 0.0000e+00    19.6568    36.2105  1026.3065    25.7761          3 0.0000e+00
       1494 169.928592      1.108    123.847    19.6683   4.911764    123.000 0.0000e+00    19.6455    36.2255  1026.3244    25.7905          3 0.0000e+00
       1498 169.928602      1.264    124.772    19.6385   4.911919    124.000 0.0000e+00    19.6156    36.2523  1026.3568    25.8188          4 0.0000e+00
       1502 169.928613      1.100    125.837    19.5532   4.908460    125.000 0.0000e+00    19.5301    36.2972  1026.4182    25.8755          4 0.0000e+00
       1506 169.928625      0.979    126.877    19.3842   4.877670    126.000 0.0000e+00    19.3611    36.1873  1026.3832    25.8356          4 0.0000e+00
       1509 169.928635      1.071    127.746    19.2226   4.846672    127.000 0.0000e+00    19.1995    36.0685  1026.3385    25.7867          3 0.0000e+00
       1513 169.928646      1.140    128.559    19.0745   4.837496    128.000 0.0000e+00    19.0514    36.1200  1026.4199    25.8643          5 0.0000e+00
       1526 169.928683      0.114    130.199    18.7364   4.787399    129.000 0.0000e+00    18.7132    35.9928  1026.4171    25.8537         11 0.0000e+00
       1531 169.928697      0.764    131.256    18.7230   4.796084    130.000 0.0000e+00    18.6997    36.0771  1026.4894    25.9215          2 0.0000e+00
       1533 169.928704      1.257    132.066    18.6884   4.790515    131.000 0.0000e+00    18.6650    36.0599  1026.4887    25.9171          3 0.0000e+00
       1535 169.928710      1.566    132.850    18.6508   4.787424    132.000 0.0000e+00    18.6272    36.0664  1026.5067    25.9317          2 0.0000e+00
       1537 169.928716      1.757    133.615    18.6077   4.782184    133.000 0.0000e+00    18.5841    36.0594  1026.5157    25.9372          2 0.0000e+00
       1540 169.928723      1.806    134.369    18.5517   4.773766    134.000 0.0000e+00    18.5280    36.0369  1026.5161    25.9342          3 0.0000e+00
       1552 169.928758      0.094    136.124    18.3765   4.747924    135.000 0.0000e+00    18.3526    35.9703  1026.5173    25.9275         15 0.0000e+00
       1558 169.928776      0.695    137.167    18.3743   4.752983    136.000 0.0000e+00    18.3502    36.0148  1026.5565    25.9621          3 0.0000e+00
       1561 169.928785      1.085    137.979    18.3641   4.751583    137.000 0.0000e+00    18.3399    36.0115  1026.5601    25.9622          3 0.0000e+00
       1564 169.928794      1.295    138.820    18.3503   4.750103    138.000 0.0000e+00    18.3261    36.0106  1026.5666    25.9650          3 0.0000e+00
       1568 169.928806      1.158    139.847    18.3292   4.746821    139.000 0.0000e+00    18.3048    36.0008  1026.5689    25.9628          5 0.0000e+00
       1574 169.928821      0.791    141.021    18.3083   4.744027    140.000 0.0000e+00    18.2836    35.9949  1026.5748    25.9636          5 0.0000e+00
       1578 169.928834      0.825    142.076    18.3012   4.744158    141.000 0.0000e+00    18.2764    36.0018  1026.5865    25.9707          4 0.0000e+00
       1582 169.928844      1.010    142.976    18.2995   4.744507    142.000 0.0000e+00    18.2746    36.0060  1026.5940    25.9744          4 0.0000e+00
       1585 169.928854      1.139    143.874    18.2971   4.744534    143.000 0.0000e+00    18.2720    36.0080  1026.6001    25.9765          3 0.0000e+00
       1589 169.928867      1.059    144.823    18.2924   4.744446    144.000 0.0000e+00    18.2672    36.0110  1026.6077    25.9801          5 0.0000e+00
       1596 169.928886      0.671    146.005    18.2840   4.743838    145.000 0.0000e+00    18.2585    36.0127  1026.6164    25.9836          9 0.0000e+00
       1603 169.928905      0.528    147.248    18.2804   4.744437    146.000 0.0000e+00    18.2547    36.0205  1026.6287    25.9905          4 0.0000e+00
       1607 169.928917      0.860    148.156    18.2766   4.744865    147.000 0.0000e+00    18.2508    36.0271  1026.6387    25.9965          3 0.0000e+00
       1609 169.928925      1.165    148.936    18.2678   4.745012    148.000 0.0000e+00    18.2418    36.0358  1026.6509    26.0054          3 0.0000e+00
       1613 169.928934      1.267    149.789    18.2435   4.742562    149.000 0.0000e+00    18.2174    36.0360  1026.6609    26.0116          5 0.0000e+00
       1620 169.928955      0.600    151.146    18.1755   4.730393    150.000 0.0000e+00    18.1492    35.9914  1026.6499    25.9945          8 0.0000e+00
       1626 169.928972      0.554    152.327    18.1374   4.726822    151.000 0.0000e+00    18.1109    35.9940  1026.6666    26.0060          3 0.0000e+00
       1628 169.928980      1.033    153.118    18.1274   4.725547    152.000 0.0000e+00    18.1008    35.9915  1026.6707    26.0067          3 0.0000e+00
       1631 169.928988      1.324    153.924    18.1188   4.726109    153.000 0.0000e+00    18.0922    36.0035  1026.6856    26.0181          3 0.0000e+00
       1635 169.928998      1.320    154.813    18.1046   4.726026    154.000 0.0000e+00    18.0778    36.0150  1026.7018    26.0304          5 0.0000e+00
       1641 169.929017      0.702    156.065    18.0638   4.719645    155.000 0.0000e+00    18.0368    35.9958  1026.7029    26.0259          8 0.0000e+00
       1648 169.929036      0.550    157.255    18.0305   4.716856    156.000 0.0000e+00    18.0034    36.0008  1026.7202    26.0380          4 0.0000e+00
       1652 169.929048      0.867    158.186    18.0111   4.715250    157.000 0.0000e+00    17.9838    36.0038  1026.7314    26.0452          4 0.0000e+00
       1655 169.929058      1.045    159.087    17.9863   4.713019    158.000 0.0000e+00    17.9589    36.0062  1026.7434    26.0532          4 0.0000e+00
       1659 169.929068      1.124    159.996    17.9491   4.709669    159.000 0.0000e+00    17.9215    36.0099  1026.7596    26.0653          4 0.0000e+00
       1664 169.929082      0.977    161.022    17.8728   4.700243    160.000 0.0000e+00    17.8451    35.9959  1026.7724    26.0735          5 0.0000e+00
       1670 169.929099      0.695    162.232    17.7500   4.679382    161.000 0.0000e+00    17.7222    35.9243  1026.7534    26.0488          6 0.0000e+00
       1674 169.929112      0.780    163.281    17.6732   4.672894    162.000 0.0000e+00    17.6454    35.9358  1026.7858    26.0765          3 0.0000e+00
       1677 169.929121      1.036    164.154    17.6212   4.666349    163.000 0.0000e+00    17.5933    35.9249  1026.7941    26.0809          3 0.0000e+00
       1680 169.929130      1.257    164.955    17.5732   4.660848    164.000 0.0000e+00    17.5452    35.9195  1026.8053    26.0885          3 0.0000e+00
       1686 169.929146      0.907    166.007    17.4877   4.648038    165.000 0.0000e+00    17.4596    35.8839  1026.8037    26.0820         11 0.0000e+00
       1696 169.929176      0.145    167.652    17.3923   4.638720    166.000 0.0000e+00    17.3640    35.8870  1026.8368    26.1076          5 0.0000e+00
       1699 169.929183      0.792    168.411    17.3846   4.639773    167.000 0.0000e+00    17.3562    35.9026  1026.8539    26.1216          3 0.0000e+00
       1701 169.929191      1.245    169.211    17.3641   4.638373    168.000 0.0000e+00    17.3356    35.9084  1026.8668    26.1310          2 0.0000e+00
       1704 169.929198      1.512    170.039    17.3342   4.633402    169.000 0.0000e+00    17.3056    35.8913  1026.8647    26.1251          3 0.0000e+00
       1707 169.929207      1.506    170.940    17.2890   4.628126    170.000 0.0000e+00    17.2603    35.8853  1026.8751    26.1314          3 0.0000e+00
       1711 169.929220      1.117    172.008    17.2007   4.616204    171.000 0.0000e+00    17.1719    35.8594  1026.8815    26.1329          6 0.0000e+00
       1717 169.929237      0.703    173.160    17.0732   4.597485    172.000 0.0000e+00    17.0444    35.8090  1026.8788    26.1248          6 0.0000e+00
       1724 169.929256      0.598    174.346    16.9732   4.584941    173.000 0.0000e+00    16.9444    35.7876  1026.8919    26.1323          6 0.0000e+00
       1729 169.929271      0.711    175.436    16.9375   4.583970    174.000 0.0000e+00    16.9085    35.8105  1026.9227    26.1584          4 0.0000e+00
       1732 169.929280      0.993    176.304    16.9187   4.583055    175.000 0.0000e+00    16.8896    35.8189  1026.9375    26.1694          3 0.0000e+00
       1735 169.929288      1.257    177.096    16.8947   4.580463    176.000 0.0000e+00    16.8654    35.8173  1026.9456    26.1739          3 0.0000e+00
       1738 169.929298      1.337    177.946    16.8543   4.576789    177.000 0.0000e+00    16.8250    35.8207  1026.9616    26.1862          4 0.0000e+00
       1746 169.929320      0.545    179.341    16.7323   4.556545    178.000 0.0000e+00    16.7029    35.7510  1026.9436    26.1615         10 0.0000e+00
       1753 169.929339      0.489    180.644    16.6632   4.552393    179.000 0.0000e+00    16.6336    35.7756  1026.9847    26.1968          3 0.0000e+00
       1755 169.929346      1.017    181.375    16.6386   4.551095    180.000 0.0000e+00    16.6089    35.7859  1027.0017    26.2105          3 0.0000e+00
       1757 169.929353      1.406    182.081    16.6043   4.546985    181.000 0.0000e+00    16.5746    35.7800  1027.0085    26.2141          2 0.0000e+00
       1760 169.929360      1.639    182.797    16.5574   4.538609    182.000 0.0000e+00    16.5276    35.7477  1026.9980    26.2003          3 0.0000e+00
       1771 169.929391      0.174    184.506    16.3876   4.514550    183.000 0.0000e+00    16.3577    35.6862  1026.9985    26.1928         10 0.0000e+00
       1776 169.929406      0.716    185.477    16.3448   4.511989    184.000 0.0000e+00    16.3149    35.7012  1027.0244    26.2143          3 0.0000e+00
       1778 169.929413      1.257    186.213    16.3218   4.510560    185.000 0.0000e+00    16.2917    35.7089  1027.0390    26.2256          3 0.0000e+00
       1782 169.929423      1.272    187.148    16.2781   4.505976    186.000 0.0000e+00    16.2480    35.7070  1027.0518    26.2343          5 0.0000e+00
       1787 169.929440      0.798    188.378    16.2005   4.492407    187.000 0.0000e+00    16.1702    35.6555  1027.0359    26.2127          5 0.0000e+00
       1792 169.929452      0.794    189.367    16.1528   4.488083    188.000 0.0000e+00    16.1225    35.6593  1027.0544    26.2267          4 0.0000e+00
       1795 169.929463      1.034    190.223    16.1199   4.486980    189.000 0.0000e+00    16.0894    35.6787  1027.0808    26.2493          4 0.0000e+00
       1800 169.929476      0.974    191.189    16.0554   4.479069    190.000 0.0000e+00    16.0249    35.6657  1027.0901    26.2541          6 0.0000e+00
       1808 169.929498      0.476    192.554    15.9415   4.460436    191.000 0.0000e+00    15.9110    35.6009  1027.0729    26.2305          7 0.0000e+00
       1812 169.929511      0.726    193.534    15.9098   4.461088    192.000 0.0000e+00    15.8791    35.6349  1027.1107    26.2639          3 0.0000e+00
       1815 169.929520      1.078    194.374    15.8841   4.459821    193.000 2.5727e-05    15.8533    35.6464  1027.1291    26.2786          3 0.0000e+00
       1818 169.929528      1.305    195.165    15.8480   4.456925    194.000 7.4057e-07    15.8171    35.6526  1027.1458    26.2917          3 0.0000e+00
       1823 169.929542      1.072    196.219    15.7570   4.441464    195.000 0.0000e+00    15.7261    35.5954  1027.1275    26.2684          7 0.0000e+00
       1830 169.929562      0.454    197.592    15.6411   4.424886    196.000 0.0000e+00    15.6101    35.5503  1027.1255    26.2600          5 0.0000e+00
       1833 169.929573      0.816    198.431    15.6227   4.426383    197.000 0.0000e+00    15.5916    35.5800  1027.1562    26.2870          4 0.0000e+00
       1837 169.929583      1.081    199.277    15.6012   4.424145    198.000 0.0000e+00    15.5700    35.5789  1027.1641    26.2911          4 0.0000e+00
       1842 169.929599      0.870    200.396    15.5696   4.419491    199.000 0.0000e+00    15.5384    35.5650  1027.1655    26.2875          6 0.0000e+00
       1848 169.929615      0.652    201.545    15.5513   4.417651    200.000 0.0000e+00    15.5198    35.5645  1027.1744    26.2913          4 0.0000e+00
       1852 169.929626      0.927    202.427    15.5516   4.419006    201.000 0.0000e+00    15.5200    35.5761  1027.1872    26.3002          4 0.0000e+00
       1856 169.929637      1.055    203.390    15.5523   4.419211    202.000 0.0000e+00    15.5205    35.5769  1027.1919    26.3008          4 0.0000e+00
       1860 169.929650      0.955    204.414    15.5526   4.419671    203.000 0.0000e+00    15.5207    35.5803  1027.1990    26.3033          5 0.0000e+00
       1864 169.929661      0.957    205.350    15.5525   4.419838    204.000 0.0000e+00    15.5204    35.5816  1027.2041    26.3044          4 0.0000e+00
       1869 169.929676      0.900    206.340    15.5509   4.420442    205.000 0.0000e+00    15.5188    35.5880  1027.2138    26.3097          6 0.0000e+00
       1876 169.929697      0.495    207.667    15.5417   4.420249    206.000 0.0000e+00    15.5093    35.5941  1027.2264    26.3165          6 0.0000e+00
       1881 169.929710      0.748    208.642    15.5303   4.419227    207.000 0.0000e+00    15.4978    35.5948  1027.2338    26.3196          4 0.0000e+00
       1884 169.929718      1.070    209.494    15.5176   4.418322    208.000 0.0000e+00    15.4850    35.5977  1027.2427    26.3248          3 0.0000e+00
       1887 169.929728      1.251    210.393    15.4977   4.416801    209.000 0.0000e+00    15.4650    35.6017  1027.2542    26.3323          3 0.0000e+00
       1891 169.929739      1.189    211.361    15.4621   4.412715    210.000 0.0000e+00    15.4293    35.5965  1027.2627    26.3364          4 0.0000e+00
       1895 169.929750      1.027    212.333    15.4044   4.405126    211.000 0.0000e+00    15.3715    35.5797  1027.2672    26.3364          5 0.0000e+00
       1901 169.929769      0.713    213.460    15.2935   4.388988    212.000 3.5645e-05    15.2606    35.5334  1027.2618    26.3256          8 0.0000e+00
       1909 169.929791      0.478    214.732    15.1875   4.374471    213.000 -3.056e-06    15.1545    35.4972  1027.2635    26.3212          5 0.0000e+00
       1912 169.929801      0.823    215.644    15.1638   4.374497    214.000 0.0000e+00    15.1307    35.5185  1027.2892    26.3430          3 0.0000e+00
       1916 169.929811      1.099    216.484    15.1432   4.373686    215.000 0.0000e+00    15.1100    35.5295  1027.3061    26.3560          4 0.0000e+00
       1919 169.929822      1.168    217.400    15.1090   4.369263    216.000 0.0000e+00    15.0757    35.5199  1027.3104    26.3562          4 0.0000e+00
       1924 169.929836      0.895    218.524    15.0465   4.361626    217.000 0.0000e+00    15.0132    35.5065  1027.3191    26.3597          6 0.0000e+00
       1930 169.929851      0.753    219.651    14.9712   4.350630    218.000 0.0000e+00    14.9378    35.4741  1027.3160    26.3513          4 0.0000e+00
       1934 169.929863      0.901    220.610    14.9171   4.344273    219.000 0.0000e+00    14.8836    35.4648  1027.3252    26.3561          4 0.0000e+00
       1937 169.929873      1.074    221.506    14.8750   4.339207    220.000 0.0000e+00    14.8415    35.4564  1027.3320    26.3588          3 0.0000e+00
       1941 169.929884      1.102    222.437    14.8334   4.334658    221.000 0.0000e+00    14.7998    35.4521  1027.3422    26.3646          5 0.0000e+00
       1946 169.929899      0.866    223.510    14.7875   4.329629    222.000 0.0000e+00    14.7539    35.4473  1027.3534    26.3710          6 0.0000e+00
       1952 169.929915      0.710    224.580    14.7492   4.324431    223.000 0.0000e+00    14.7154    35.4341  1027.3565    26.3692          5 0.0000e+00
       1958 169.929932      0.707    225.664    14.7277   4.323362    224.000 0.0000e+00    14.6938    35.4434  1027.3732    26.3811          6 0.0000e+00
       1963 169.929948      0.716    226.789    14.7137   4.322094    225.000 0.0000e+00    14.6797    35.4441  1027.3818    26.3846          4 0.0000e+00
       1967 169.929958      0.920    227.748    14.7039   4.321391    226.000 0.0000e+00    14.6697    35.4462  1027.3898    26.3884          4 0.0000e+00
       1970 169.929967      1.156    228.623    14.6937   4.320980    227.000 0.0000e+00    14.6594    35.4513  1027.3999    26.3947          2 0.0000e+00
       1972 169.929975      1.349    229.432    14.6804   4.318985    228.000 0.0000e+00    14.6460    35.4448  1027.4014    26.3925          3 0.0000e+00
       1976 169.929986      1.284    230.360    14.6598   4.316487    229.000 0.0000e+00    14.6253    35.4403  1027.4065    26.3935          5 0.0000e+00
       1983 169.930007      0.546    231.741    14.6219   4.311109    230.000 0.0000e+00    14.5873    35.4247  1027.4091    26.3898          8 0.0000e+00
       1989 169.930022      0.650    232.803    14.6084   4.310912    231.000 0.0000e+00    14.5736    35.4348  1027.4245    26.4006          4 0.0000e+00
       1992 169.930031      1.025    233.526    14.6008   4.310570    232.000 0.0000e+00    14.5659    35.4383  1027.4321    26.4049          3 0.0000e+00
       1999 169.930053      0.634    234.663    14.5725   4.307239    233.000 0.0000e+00    14.5375    35.4330  1027.4392    26.4069         12 0.0000e+00
       2010 169.930083      0.300    236.193    14.5367   4.304462    234.000 0.0000e+00    14.5015    35.4395  1027.4588    26.4197          2 0.0000e+00
       2012 169.930090      0.981    236.977    14.5260   4.303652    235.000 0.0000e+00    14.4907    35.4414  1027.4662    26.4236          3 0.0000e+00
       2014 169.930096      1.440    237.796    14.5116   4.301866    236.000 0.0000e+00    14.4762    35.4378  1027.4702    26.4239          2 0.0000e+00
       2016 169.930102      1.710    238.572    14.4953   4.299777    237.000 0.0000e+00    14.4598    35.4330  1027.4735    26.4238          2 0.0000e+00
       2018 169.930108      1.852    239.318    14.4765   4.297743    238.000 0.0000e+00    14.4410    35.4312  1027.4795    26.4263          2 0.0000e+00
       2021 169.930117      1.819    240.100    14.4498   4.293159    239.000 0.0000e+00    14.4142    35.4130  1027.4748    26.4181          4 0.0000e+00
       2036 169.930158      0.023    242.031    14.3651   4.283571    240.000 0.0000e+00    14.3293    35.4010  1027.4926    26.4271          8 0.0000e+00
       2041 169.930173      0.840    242.974    14.3515   4.282726    241.000 0.0000e+00    14.3157    35.4051  1027.5030    26.4332          3 0.0000e+00
       2043 169.930179      1.253    243.730    14.3407   4.281245    242.000 0.0000e+00    14.3047    35.4010  1027.5055    26.4323          3 0.0000e+00
       2046 169.930188      1.420    244.578    14.3281   4.279516    243.000 0.0000e+00    14.2920    35.3963  1027.5083    26.4314          3 0.0000e+00
       2050 169.930199      1.281    245.539    14.3133   4.278554    244.000 0.0000e+00    14.2771    35.4004  1027.5190    26.4378          5 0.0000e+00
       2055 169.930215      0.785    246.751    14.2884   4.275988    245.000 0.0000e+00    14.2520    35.3990  1027.5287    26.4421          6 0.0000e+00
       2060 169.930229      0.752    247.769    14.2660   4.273042    246.000 5.4745e-05    14.2295    35.3918  1027.5325    26.4413          4 0.0000e+00
       2065 169.930243      0.869    248.744    14.2475   4.272238    247.000 2.5023e-07    14.2109    35.4009  1027.5479    26.4523          5 0.0000e+00
       2070 169.930259      0.766    249.862    14.2219   4.268587    248.000 0.0000e+00    14.1853    35.3899  1027.5499    26.4493          5 0.0000e+00
       2075 169.930272      0.802    250.887    14.2022   4.267247    249.000 0.0000e+00    14.1654    35.3951  1027.5628    26.4575          4 0.0000e+00
       2078 169.930282      1.018    251.752    14.1850   4.266248    250.000 0.0000e+00    14.1481    35.4013  1027.5751    26.4659          4 0.0000e+00
       2082 169.930293      1.107    252.662    14.1589   4.262149    251.000 0.0000e+00    14.1219    35.3867  1027.5736    26.4602          4 0.0000e+00
       2088 169.930308      0.845    253.762    14.1228   4.257300    252.000 0.0000e+00    14.0857    35.3743  1027.5767    26.4584          6 0.0000e+00
       2093 169.930325      0.670    254.880    14.0953   4.254599    253.000 0.0000e+00    14.0581    35.3740  1027.5874    26.4640          5 0.0000e+00
       2098 169.930339      0.799    255.879    14.0780   4.253881    254.000 0.0000e+00    14.0406    35.3828  1027.6023    26.4744          5 0.0000e+00
       2103 169.930352      0.875    256.879    14.0539   4.251917    255.000 0.0000e+00    14.0165    35.3861  1027.6145    26.4821          4 0.0000e+00
       2107 169.930363      0.970    257.820    14.0193   4.246801    256.000 0.0000e+00    13.9818    35.3699  1027.6136    26.4769          4 0.0000e+00
       2111 169.930375      0.990    258.810    13.9727   4.241762    257.000 0.0000e+00    13.9352    35.3652  1027.6244    26.4831          5 0.0000e+00
       2116 169.930391      0.817    259.973    13.9094   4.233288    258.000 0.0000e+00    13.8718    35.3438  1027.6266    26.4799          4 0.0000e+00
       2120 169.930401      0.906    260.905    13.8653   4.227348    259.000 0.0000e+00    13.8276    35.3285  1027.6283    26.4773          4 0.0000e+00
       2123 169.930410      1.131    261.739    13.8308   4.224158    260.000 0.0000e+00    13.7931    35.3300  1027.6406    26.4857          3 0.0000e+00
       2127 169.930423      1.078    262.709    13.7886   4.218931    261.000 0.0000e+00    13.7508    35.3195  1027.6458    26.4864          6 0.0000e+00
       2134 169.930442      0.608    263.923    13.7382   4.212586    262.000 0.0000e+00    13.7004    35.3058  1027.6514    26.4864          6 0.0000e+00
       2140 169.930459      0.643    265.023    13.7145   4.211327    263.000 0.0000e+00    13.6765    35.3154  1027.6688    26.4988          5 0.0000e+00
       2144 169.930472      0.840    266.006    13.7014   4.210219    264.000 0.0000e+00    13.6633    35.3167  1027.6769    26.5025          4 0.0000e+00
       2147 169.930481      1.021    266.868    13.6889   4.209387    265.000 0.0000e+00    13.6507    35.3200  1027.6859    26.5077          4 0.0000e+00
       2151 169.930493      1.101    267.796    13.6698   4.206982    266.000 0.0000e+00    13.6315    35.3147  1027.6899    26.5075          4 0.0000e+00
       2157 169.930509      0.794    268.985    13.6380   4.202519    267.000 0.0000e+00    13.5996    35.3016  1027.6919    26.5040          6 0.0000e+00
       2162 169.930523      0.747    270.049    13.6163   4.200576    268.000 0.0000e+00    13.5777    35.3029  1027.7022    26.5096          4 0.0000e+00
       2165 169.930532      1.028    270.888    13.6025   4.200272    269.000 0.0000e+00    13.5639    35.3124  1027.7161    26.5198          3 0.0000e+00
       2169 169.930543      1.181    271.741    13.5817   4.197629    270.000 0.0000e+00    13.5430    35.3064  1027.7197    26.5194          4 0.0000e+00
       2175 169.930560      0.753    272.902    13.5427   4.191906    271.000 0.0000e+00    13.5040    35.2879  1027.7188    26.5132          8 0.0000e+00
       2182 169.930581      0.561    274.096    13.5191   4.189985    272.000 0.0000e+00    13.4802    35.2912  1027.7317    26.5207          6 0.0000e+00
       2186 169.930594      0.795    275.050    13.5123   4.189942    273.000 0.0000e+00    13.4732    35.2967  1027.7416    26.5263          4 0.0000e+00
       2190 169.930606      0.956    275.996    13.5047   4.189423    274.000 0.0000e+00    13.4655    35.2983  1027.7487    26.5292          4 0.0000e+00
       2195 169.930618      0.947    277.084    13.4921   4.188374    275.000 2.0205e-05    13.4528    35.2996  1027.7571    26.5328          4 0.0000e+00
       2198 169.930629      0.963    278.057    13.4740   4.187276    276.000 3.2079e-07    13.4346    35.3056  1027.7698    26.5412          4 0.0000e+00
       2201 169.930638      1.159    278.875    13.4522   4.184704    277.000 0.0000e+00    13.4127    35.3011  1027.7746    26.5423          2 0.0000e+00
       2204 169.930646      1.321    279.624    13.4229   4.180664    278.000 0.0000e+00    13.3834    35.2897  1027.7753    26.5394          4 0.0000e+00
       2216 169.930679      0.415    281.144    13.3408   4.169830    279.000 0.0000e+00    13.3013    35.2627  1027.7784    26.5353          7 0.0000e+00
       2223 169.930699      0.778    282.377    13.3172   4.169153    280.000 0.0000e+00    13.2775    35.2776  1027.8004    26.5517          3 0.0000e+00
       2225 169.930705      1.318    283.093    13.3102   4.168219    281.000 0.0000e+00    13.2704    35.2749  1027.8029    26.5511          2 0.0000e+00
       2227 169.930712      1.612    283.898    13.2997   4.165962    282.000 0.0000e+00    13.2599    35.2629  1027.7994    26.5439          3 0.0000e+00
       2230 169.930719      1.660    284.736    13.2890   4.164955    283.000 0.0000e+00    13.2491    35.2629  1027.8054    26.5462          3 0.0000e+00
       2234 169.930731      1.284    285.713    13.2733   4.163449    284.000 0.0000e+00    13.2333    35.2628  1027.8128    26.5493          6 0.0000e+00
       2245 169.930765      0.040    287.383    13.2411   4.159281    285.000 8.1973e-05    13.2009    35.2524  1027.8190    26.5479         10 0.0000e+00
       2250 169.930778      0.620    288.330    13.2393   4.160088    286.000 -9.780e-06    13.1989    35.2614  1027.8305    26.5552          3 0.0000e+00
       2252 169.930785      1.095    289.001    13.2357   4.159770    287.000 0.0000e+00    13.1952    35.2614  1027.8342    26.5559          3 0.0000e+00
       2256 169.930795      1.284    289.802    13.2276   4.159010    288.000 0.0000e+00    13.1871    35.2613  1027.8394    26.5575          5 0.0000e+00
       2265 169.930822      0.315    291.398    13.1965   4.155362    289.000 0.0000e+00    13.1557    35.2549  1027.8480    26.5589         10 0.0000e+00
       2270 169.930835      0.673    292.445    13.1767   4.155502    290.000 0.0000e+00    13.1359    35.2741  1027.8717    26.5779          2 0.0000e+00
       2272 169.930842      1.144    293.260    13.1556   4.152979    291.000 0.0000e+00    13.1147    35.2694  1027.8760    26.5785          3 0.0000e+00
       2274 169.930849      1.496    294.026    13.1314   4.148837    292.000 0.0000e+00    13.0904    35.2522  1027.8712    26.5701          2 0.0000e+00
       2277 169.930855      1.709    294.810    13.1044   4.142495    293.000 0.0000e+00    13.0634    35.2166  1027.8527    26.5479          2 0.0000e+00
       2280 169.930865      1.553    295.695    13.0715   4.140720    294.000 0.0000e+00    13.0304    35.2298  1027.8737    26.5649          5 0.0000e+00
       2292 169.930899      0.131    297.331    12.9893   4.131643    295.000 1.3369e-05    12.9482    35.2190  1027.8896    26.5730         14 0.0000e+00
       2298 169.930918      0.618    298.459    12.9669   4.131229    296.000 -6.145e-07    12.9257    35.2353  1027.9118    26.5903          3 0.0000e+00
       2301 169.930927      1.026    299.289    12.9490   4.129775    297.000 0.0000e+00    12.9077    35.2378  1027.9211    26.5957          3 0.0000e+00
       2304 169.930935      1.304    300.093    12.9243   4.126255    298.000 2.8093e-04    12.8830    35.2268  1027.9213    26.5922          3 0.0000e+00
       2307 169.930943      1.418    300.956    12.8928   4.120849    299.000 -4.240e-06    12.8514    35.2040  1027.9140    26.5809          3 0.0000e+00
       2312 169.930958      1.016    302.111    12.8361   4.114748    300.000 0.0000e+00    12.7947    35.1979  1027.9260    26.5875          7 0.0000e+00
       2318 169.930976      0.548    303.457    12.7645   4.106034    301.000 0.0000e+00    12.7230    35.1806  1027.9333    26.5883          4 0.0000e+00
       2321 169.930985      0.913    304.276    12.7342   4.103025    302.000 0.0000e+00    12.6927    35.1797  1027.9424    26.5936          3 0.0000e+00
       2324 169.930992      1.259    305.008    12.7073   4.099367    303.000 0.0000e+00    12.6657    35.1694  1027.9431    26.5909          3 0.0000e+00
       2327 169.931002      1.326    305.806    12.6734   4.095648    304.000 0.0000e+00    12.6318    35.1649  1027.9501    26.5942          5 0.0000e+00
       2342 169.931044      0.237    307.689    12.5746   4.085659    305.000 0.0000e+00    12.5329    35.1602  1027.9749    26.6101          5 0.0000e+00
       2345 169.931052      0.889    308.551    12.5536   4.084459    306.000 0.0000e+00    12.5119    35.1678  1027.9889    26.6201          2 0.0000e+00
       2347 169.931059      1.315    309.389    12.5283   4.081964    307.000 0.0000e+00    12.4865    35.1670  1027.9972    26.6245          3 0.0000e+00
       2349 169.931066      1.583    310.184    12.4994   4.078517    308.000 0.0000e+00    12.4576    35.1605  1028.0015    26.6251          2 0.0000e+00
       2351 169.931072      1.757    310.980    12.4656   4.073208    309.000 0.0000e+00    12.4238    35.1406  1027.9964    26.6163          2 0.0000e+00
       2354 169.931080      1.691    311.863    12.4225   4.066289    310.000 0.0000e+00    12.3806    35.1137  1027.9882    26.6038          4 0.0000e+00
       2362 169.931102      0.702    313.172    12.3394   4.057080    311.000 0.0000e+00    12.2975    35.1018  1028.0015    26.6108         13 0.0000e+00
       2372 169.931132      0.368    314.625    12.2801   4.052268    312.000 0.0000e+00    12.2382    35.1101  1028.0262    26.6288          4 0.0000e+00
       2375 169.931140      0.906    315.415    12.2705   4.050289    313.000 0.0000e+00    12.2285    35.0995  1028.0235    26.6224          3 0.0000e+00
       2378 169.931149      1.220    316.224    12.2618   4.049977    314.000 0.0000e+00    12.2197    35.1043  1028.0326    26.6279          3 0.0000e+00
       2382 169.931159      1.274    317.126    12.2525   4.048854    315.000 0.0000e+00    12.2103    35.1017  1028.0364    26.6276          4 0.0000e+00
       2387 169.931175      0.857    318.322    12.2403   4.047990    316.000 0.0000e+00    12.1980    35.1043  1028.0461    26.6320          7 0.0000e+00
       2393 169.931191      0.649    319.568    12.2262   4.046714    317.000 0.0000e+00    12.1837    35.1046  1028.0548    26.6350          4 0.0000e+00
       2396 169.931201      0.940    320.451    12.2162   4.045491    318.000 0.0000e+00    12.1737    35.1016  1028.0584    26.6347          3 0.0000e+00
       2399 169.931209      1.241    321.280    12.2072   4.044272    319.000 0.0000e+00    12.1645    35.0979  1028.0611    26.6336          3 0.0000e+00
       2402 169.931217      1.408    322.087    12.1986   4.042914    320.000 0.0000e+00    12.1558    35.0925  1028.0621    26.6310          3 0.0000e+00
       2406 169.931229      1.213    322.974    12.1906   4.042205    321.000 0.0000e+00    12.1478    35.0927  1028.0678    26.6327          6 0.0000e+00
       2421 169.931273      0.195    324.867    12.1779   4.041556    322.000 0.0000e+00    12.1348    35.0975  1028.0825    26.6390          4 0.0000e+00
       2424 169.931281      0.890    325.693    12.1757   4.041676    323.000 0.0000e+00    12.1326    35.1003  1028.0888    26.6416          3 0.0000e+00
       2426 169.931288      1.337    326.502    12.1723   4.041869    324.000 0.0000e+00    12.1290    35.1051  1028.0968    26.6459          2 0.0000e+00
       2428 169.931294      1.662    327.290    12.1669   4.041425    325.000 0.0000e+00    12.1236    35.1054  1028.1016    26.6473          2 0.0000e+00
       2430 169.931300      1.838    328.038    12.1597   4.039664    326.000 0.0000e+00    12.1163    35.0948  1028.0981    26.6404          2 0.0000e+00
       2433 169.931307      1.865    328.741    12.1521   4.037564    327.000 0.0000e+00    12.1086    35.0812  1028.0923    26.6314          3 0.0000e+00
       2445 169.931342      0.605    330.449    12.1295   4.035955    328.000 0.0000e+00    12.0858    35.0861  1028.1081    26.6395          5 0.0000e+00
       2451 169.931361      1.066    331.548    12.1066   4.035291    329.000 0.0000e+00    12.0628    35.1006  1028.1288    26.6552          3 0.0000e+00
       2453 169.931367      1.540    332.245    12.0911   4.032671    330.000 0.0000e+00    12.0472    35.0894  1028.1263    26.6495          2 0.0000e+00
       2456 169.931375      1.634    333.047    12.0686   4.028888    331.000 0.0000e+00    12.0247    35.0733  1028.1219    26.6414          4 0.0000e+00
       2465 169.931400      0.487    334.570    12.0180   4.025024    332.000 0.0000e+00    11.9740    35.0825  1028.1458    26.6582         11 0.0000e+00
       2471 169.931417      0.623    335.746    11.9655   4.016117    333.000 0.0000e+00    11.9215    35.0445  1028.1320    26.6386          3 0.0000e+00
       2473 169.931425      1.058    336.536    11.9409   4.013867    334.000 0.0000e+00    11.8969    35.0453  1028.1409    26.6440          2 0.0000e+00
       2476 169.931431      1.428    337.296    11.9240   4.012673    335.000 0.0000e+00    11.8799    35.0492  1028.1507    26.6503          3 0.0000e+00
       2479 169.931440      1.541    338.122    11.9080   4.010656    336.000 0.0000e+00    11.8638    35.0441  1028.1536    26.6494          3 0.0000e+00
       2488 169.931467      0.557    339.441    11.8916   4.009768    337.000 0.0000e+00    11.8473    35.0503  1028.1675    26.6573         17 0.0000e+00
       2499 169.931500      0.422    340.961    11.8788   4.008914    338.000 0.0000e+00    11.8343    35.0533  1028.1792    26.6622          4 0.0000e+00
       2502 169.931509      0.899    341.814    11.8747   4.008401    339.000 0.0000e+00    11.8301    35.0518  1028.1825    26.6618          2 0.0000e+00
       2505 169.931515      1.318    342.587    11.8714   4.008249    340.000 0.0000e+00    11.8267    35.0531  1028.1877    26.6634          2 0.0000e+00
       2507 169.931521      1.659    343.374    11.8677   4.007892    341.000 0.0000e+00    11.8230    35.0527  1028.1916    26.6638          2 0.0000e+00
       2509 169.931528      1.810    344.107    11.8638   4.007267    342.000 0.0000e+00    11.8190    35.0499  1028.1935    26.6624          3 0.0000e+00
       2515 169.931544      1.104    345.288    11.8534   4.006927    343.000 0.0000e+00    11.8084    35.0559  1028.2054    26.6690         10 0.0000e+00
       2524 169.931570      0.333    346.744    11.8068   4.003613    344.000 0.0000e+00    11.7617    35.0667  1028.2294    26.6863          6 0.0000e+00
       2528 169.931584      0.749    347.634    11.7474   3.994735    345.000 0.0000e+00    11.7024    35.0353  1028.2206    26.6731          4 0.0000e+00
       2532 169.931595      0.965    348.523    11.6920   3.985801    346.000 0.0000e+00    11.6470    34.9995  1028.2076    26.6557          4 0.0000e+00
       2537 169.931609      0.941    349.506    11.6500   3.982261    347.000 0.0000e+00    11.6050    35.0038  1028.2235    26.6669          5 0.0000e+00
       2543 169.931625      0.744    350.649    11.6195   3.980289    348.000 0.0000e+00    11.5744    35.0127  1028.2414    26.6796          6 0.0000e+00
       2548 169.931640      0.732    351.760    11.5950   3.978221    349.000 0.0000e+00    11.5498    35.0150  1028.2529    26.6859          4 0.0000e+00
       2551 169.931649      0.985    352.622    11.5766   3.975341    350.000 0.0000e+00    11.5313    35.0036  1028.2515    26.6806          3 0.0000e+00
       2554 169.931658      1.236    353.434    11.5600   3.973904    351.000 0.0000e+00    11.5147    35.0048  1028.2592    26.6845          3 0.0000e+00
       2558 169.931670      1.138    354.371    11.5375   3.971387    352.000 0.0000e+00    11.4922    35.0008  1028.2647    26.6857          6 0.0000e+00
       2567 169.931695      0.371    355.785    11.4832   3.967658    353.000 0.0000e+00    11.4378    35.0146  1028.2922    26.7065          8 0.0000e+00
       2572 169.931709      0.666    356.761    11.4280   3.956437    354.000 0.0000e+00    11.3826    34.9557  1028.2614    26.6709          4 0.0000e+00
       2575 169.931720      0.980    357.629    11.4027   3.955395    355.000 0.0000e+00    11.3573    34.9689  1028.2804    26.6859          4 0.0000e+00
       2579 169.931731      1.057    358.535    11.3852   3.955046    356.000 0.0000e+00    11.3397    34.9817  1028.2977    26.6991          4 0.0000e+00
       2584 169.931746      0.892    359.564    11.3577   3.952961    357.000 0.0000e+00    11.3121    34.9866  1028.3114    26.7080          6 0.0000e+00
       2591 169.931765      0.567    360.825    11.3118   3.945881    358.000 0.0000e+00    11.2662    34.9594  1028.3047    26.6953          6 0.0000e+00
       2595 169.931778      0.753    361.770    11.2923   3.945068    359.000 0.0000e+00    11.2466    34.9694  1028.3204    26.7067          3 0.0000e+00
       2599 169.931787      1.091    362.530    11.2793   3.943851    360.000 0.0000e+00    11.2336    34.9692  1028.3262    26.7090          4 0.0000e+00
       2604 169.931802      0.930    363.591    11.2554   3.941694    361.000 0.0000e+00    11.2096    34.9700  1028.3361    26.7140          7 0.0000e+00
       2611 169.931822      0.476    364.868    11.2122   3.937934    362.000 0.0000e+00    11.1663    34.9731  1028.3524    26.7243          5 0.0000e+00
       2614 169.931833      0.857    365.655    11.1759   3.933597    363.000 0.0000e+00    11.1300    34.9642  1028.3559    26.7240          4 0.0000e+00
       2619 169.931847      0.937    366.614    11.1267   3.926306    364.000 0.0000e+00    11.0808    34.9379  1028.3491    26.7125          6 0.0000e+00
       2626 169.931866      0.566    367.846    11.0779   3.921757    365.000 0.0000e+00    11.0320    34.9384  1028.3642    26.7218          6 0.0000e+00
       2630 169.931879      0.780    368.767    11.0581   3.920578    366.000 0.0000e+00    11.0122    34.9450  1028.3773    26.7305          4 0.0000e+00
       2634 169.931890      0.988    369.650    11.0388   3.918052    367.000 0.0000e+00    10.9928    34.9378  1028.3792    26.7285          4 0.0000e+00
       2639 169.931905      0.869    370.664    11.0150   3.915679    368.000 0.0000e+00    10.9689    34.9363  1028.3871    26.7316          6 0.0000e+00
       2646 169.931925      0.571    371.911    10.9848   3.912437    369.000 0.0000e+00    10.9386    34.9322  1028.3951    26.7338          6 0.0000e+00
       2650 169.931937      0.768    372.819    10.9683   3.910473    370.000 0.0000e+00    10.9221    34.9278  1028.3989    26.7334          3 0.0000e+00
       2654 169.931946      1.087    373.597    10.9576   3.909617    371.000 0.0000e+00    10.9114    34.9291  1028.4054    26.7364          4 0.0000e+00
       2660 169.931966      0.729    374.768    10.9351   3.907953    372.000 0.0000e+00    10.8888    34.9333  1028.4181    26.7437         10 0.0000e+00
       2668 169.931987      0.480    376.086    10.8955   3.905555    373.000 0.0000e+00    10.8490    34.9465  1028.4417    26.7612          4 0.0000e+00
       2671 169.931996      0.900    376.876    10.8639   3.901056    374.000 0.0000e+00    10.8175    34.9311  1028.4392    26.7549          2 0.0000e+00
       2673 169.932003      1.304    377.608    10.8310   3.895536    375.000 0.0000e+00    10.7846    34.9070  1028.4299    26.7419          3 0.0000e+00
       2677 169.932015      1.211    378.511    10.7914   3.889254    376.000 0.0000e+00    10.7450    34.8813  1028.4213    26.7290          7 0.0000e+00
       2689 169.932050     -0.095    380.238    10.7180   3.890589    377.000 0.0000e+00    10.6715    34.9638  1028.5068    26.8064          9 0.0000e+00
       2693 169.932059      0.707    381.001    10.6340   3.876889    378.000 0.0000e+00    10.5877    34.9061  1028.4809    26.7763          3 0.0000e+00
       2696 169.932068      1.129    381.781    10.5621   3.866161    379.000 0.0000e+00    10.5159    34.8664  1028.4669    26.7580          4 0.0000e+00
       2699 169.932078      1.211    382.648    10.4869   3.854794    380.000 0.0000e+00    10.4408    34.8232  1028.4510    26.7376          4 0.0000e+00
       2705 169.932095      0.786    383.783    10.4178   3.849658    381.000 0.0000e+00    10.3718    34.8369  1028.4793    26.7603          8 0.0000e+00
       2713 169.932117      0.481    385.060    10.3686   3.848560    382.000 0.0000e+00    10.3225    34.8722  1028.5214    26.7965          5 0.0000e+00
       2717 169.932130      0.783    386.012    10.3197   3.844928    383.000 0.0000e+00    10.2737    34.8818  1028.5421    26.8125          4 0.0000e+00
       2720 169.932138      1.052    386.875    10.2533   3.838655    384.000 0.0000e+00    10.2074    34.8815  1028.5578    26.8238          3 0.0000e+00
       2724 169.932149      1.173    387.775    10.1632   3.821352    385.000 0.0000e+00    10.1174    34.7918  1028.5083    26.7693          4 0.0000e+00
       2728 169.932160      1.084    388.702    10.0744   3.811588    386.000 0.0000e+00    10.0287    34.7773  1028.5170    26.7731          4 0.0000e+00
       2736 169.932185      0.516    389.898     9.9920   3.805163    387.000 0.0000e+00     9.9464    34.7903  1028.5473    26.7973         14 0.0000e+00
       2746 169.932214      0.387    391.338     9.9102   3.797990    388.000 0.0000e+00     9.8647    34.7949  1028.5719    26.8149          4 0.0000e+00
       2748 169.932220      0.953    392.069     9.8699   3.793662    389.000 0.0000e+00     9.8245    34.7891  1028.5778    26.8172          2 0.0000e+00
       2751 169.932227      1.396    392.799     9.8315   3.788063    390.000 0.0000e+00     9.7861    34.7685  1028.5719    26.8075          2 0.0000e+00
       2754 169.932236      1.579    393.597     9.7844   3.783614    391.000 0.0000e+00     9.7391    34.7678  1028.5832    26.8149          4 0.0000e+00
       2760 169.932254      0.814    394.823     9.6925   3.773523    392.000 0.0000e+00     9.6473    34.7523  1028.5927    26.8181         10 0.0000e+00
       2768 169.932278      0.475    396.122     9.5634   3.763924    393.000 0.0000e+00     9.5183    34.7775  1028.6408    26.8593          6 0.0000e+00
       2773 169.932292      0.772    397.073     9.4482   3.745987    394.000 0.0000e+00     9.4035    34.7032  1028.6072    26.8203          3 0.0000e+00
       2777 169.932302      1.004    397.938     9.3688   3.734703    395.000 0.0000e+00     9.3242    34.6630  1028.5934    26.8017          4 0.0000e+00
       2781 169.932314      1.060    398.842     9.3180   3.732275    396.000 0.0000e+00     9.2734    34.6865  1028.6245    26.8284          5 0.0000e+00
       2787 169.932331      0.755    399.975     9.2663   3.729197    397.000 0.0000e+00     9.2217    34.7041  1028.6522    26.8506          7 0.0000e+00
       2793 169.932349      0.620    401.134     9.2148   3.722746    398.000 0.0000e+00     9.1702    34.6865  1028.6525    26.8452          5 0.0000e+00
       2797 169.932361      0.851    402.063     9.1880   3.720141    399.000 0.0000e+00     9.1434    34.6850  1028.6601    26.8484          3 0.0000e+00
       2800 169.932371      1.072    402.885     9.1725   3.719333    400.000 0.0000e+00     9.1279    34.6912  1028.6712    26.8557          4 0.0000e+00
       2805 169.932383      1.058    403.759     9.1571   3.717517    401.000 0.0000e+00     9.1124    34.6869  1028.6745    26.8549          5 0.0000e+00
       2818 169.932421     -0.026    405.478     9.1030   3.717316    402.000 0.0000e+00     9.0583    34.7365  1028.7301    26.9025         12 0.0000e+00
       2821 169.932431      0.694    406.413     9.0181   3.705150    403.000 0.0000e+00     8.9735    34.6918  1028.7137    26.8811          2 0.0000e+00
       2823 169.932436      1.220    407.141     8.9630   3.698242    404.000 0.0000e+00     8.9185    34.6729  1028.7115    26.8750          3 0.0000e+00
       2825 169.932442      1.591    407.880     8.9072   3.692689    405.000 0.0000e+00     8.8629    34.6687  1028.7209    26.8806          2 0.0000e+00
       2827 169.932449      1.811    408.569     8.8543   3.679509    406.000 0.0000e+00     8.8100    34.5819  1028.6652    26.8209          2 0.0000e+00
       2837 169.932477      0.921    409.940     8.7732   3.671183    407.000 0.0000e+00     8.7290    34.5729  1028.6778    26.8267          7 0.0000e+00
       2847 169.932506      0.857    411.359     8.7008   3.668139    408.000 0.0000e+00     8.6567    34.6106  1028.7257    26.8676          3 0.0000e+00
       2849 169.932512      1.337    412.097     8.6763   3.666088    409.000 0.0000e+00     8.6322    34.6126  1028.7346    26.8730          2 0.0000e+00
       2852 169.932519      1.670    412.869     8.6550   3.665638    410.000 0.0000e+00     8.6109    34.6283  1028.7538    26.8886          2 0.0000e+00
       2855 169.932528      1.608    413.764     8.6311   3.662476    411.000 0.0000e+00     8.5869    34.6179  1028.7537    26.8842          4 0.0000e+00
       2861 169.932546      0.825    414.994     8.6027   3.660351    412.000 0.0000e+00     8.5585    34.6227  1028.7677    26.8924          9 0.0000e+00
       2868 169.932566      0.580    416.125     8.5780   3.658846    413.000 0.0000e+00     8.5337    34.6305  1028.7829    26.9023          6 0.0000e+00
       2875 169.932587      0.587    417.294     8.5407   3.655370    414.000 0.0000e+00     8.4964    34.6296  1028.7937    26.9074          6 0.0000e+00
       2880 169.932601      0.697    418.335     8.5039   3.651119    415.000 0.0000e+00     8.4596    34.6203  1028.7971    26.9058          4 0.0000e+00
       2883 169.932609      1.039    419.103     8.4790   3.649185    416.000 0.0000e+00     8.4347    34.6239  1028.8074    26.9124          3 0.0000e+00
       2886 169.932619      1.250    419.934     8.4484   3.644454    417.000 0.0000e+00     8.4041    34.6034  1028.8001    26.9010          4 0.0000e+00
       2893 169.932638      0.726    421.173     8.3938   3.640749    418.000 0.0000e+00     8.3496    34.6170  1028.8253    26.9202          8 0.0000e+00
       2899 169.932656      0.532    422.401     8.3196   3.633039    419.000 0.0000e+00     8.2755    34.6074  1028.8354    26.9239          4 0.0000e+00
       2902 169.932666      0.934    423.185     8.2664   3.628417    420.000 0.0000e+00     8.2223    34.6102  1028.8497    26.9342          3 0.0000e+00
       2905 169.932675      1.201    423.960     8.2076   3.617861    421.000 0.0000e+00     8.1637    34.5552  1028.8196    26.8999          4 0.0000e+00
       2914 169.932699      0.539    425.211     8.1400   3.613063    422.000 0.0000e+00     8.0961    34.5700  1028.8476    26.9217         14 0.0000e+00
       2923 169.932725      0.467    426.553     8.0777   3.606510    423.000 0.0000e+00     8.0339    34.5607  1028.8564    26.9237          3 0.0000e+00
       2926 169.932733      1.006    427.342     8.0491   3.604259    424.000 0.0000e+00     8.0053    34.5643  1028.8673    26.9309          2 0.0000e+00
       2928 169.932741      1.385    428.107     8.0262   3.601021    425.000 0.0000e+00     7.9824    34.5519  1028.8647    26.9245          3 0.0000e+00
       2931 169.932750      1.452    428.971     8.0032   3.598976    426.000 0.0000e+00     7.9594    34.5522  1028.8725    26.9282          4 0.0000e+00
       2937 169.932767      0.872    430.174     7.9709   3.597088    427.000 0.0000e+00     7.9271    34.5633  1028.8917    26.9417          8 0.0000e+00
       2943 169.932785      0.585    431.352     7.9239   3.595332    428.000 0.0000e+00     7.8801    34.5902  1028.9256    26.9699          4 0.0000e+00
       2947 169.932796      0.882    432.200     7.8643   3.585674    429.000 0.0000e+00     7.8206    34.5451  1028.9034    26.9432          4 0.0000e+00
       2952 169.932811      0.883    433.145     7.7911   3.576762    430.000 0.0000e+00     7.7476    34.5211  1028.9004    26.9350          7 0.0000e+00
       2961 169.932835      0.414    434.498     7.7073   3.569969    431.000 0.0000e+00     7.6639    34.5301  1028.9266    26.9543          7 0.0000e+00
       2965 169.932848      0.697    435.474     7.6708   3.566812    432.000 0.0000e+00     7.6274    34.5317  1028.9380    26.9609          4 0.0000e+00
       2968 169.932857      1.062    436.282     7.6404   3.564959    433.000 0.0000e+00     7.5970    34.5414  1028.9540    26.9730          2 0.0000e+00
       2971 169.932866      1.292    437.080     7.6005   3.561045    434.000 0.0000e+00     7.5572    34.5382  1028.9612    26.9762          4 0.0000e+00
       2977 169.932883      0.871    438.194     7.4959   3.547675    435.000 0.0000e+00     7.4528    34.4967  1028.9498    26.9585          9 0.0000e+00
       2985 169.932906      0.404    439.511     7.3770   3.535088    436.000 0.0000e+00     7.3342    34.4775  1028.9588    26.9603          5 0.0000e+00
       2990 169.932918      0.797    440.361     7.3440   3.532037    437.000 0.0000e+00     7.3012    34.4767  1028.9671    26.9644          4 0.0000e+00
       2993 169.932929      1.010    441.203     7.3205   3.529800    438.000 0.0000e+00     7.2777    34.4752  1028.9733    26.9665          4 0.0000e+00
       3000 169.932948      0.709    442.278     7.2987   3.528270    439.000 0.0000e+00     7.2559    34.4798  1028.9850    26.9732         10 0.0000e+00
       3020 169.933006      0.072    475.831     7.1992   3.527935    440.000 0.0000e+00     7.1534    34.5592  1029.2146    27.0501         27 0.0000e+00
