* Sea-Bird SBE 9 Data File:
* FileName = D:\ACEX\MCTV001.hex
* Software Version Seasave V 7.17
* Temperature SN = 4821
* Conductivity SN = 3367
* Number of Bytes Per Scan = 18
* Number of Voltage Words = 2
* Number of Scans Averaged by the Deck Unit = 1
* System UpLoad Time = Jun 12 2012 10:34:17
** H38 
** NHo Cruzeiro do Sul 
** 222 
** MCT V ACEx 
** Estação 001
**  25 59.557 S
**  045 32.712 W
**   12/06/2012 13:33Z
**   496
** 9P46375-0882 
**   CT Bambace
# nquan = 16
# nvalues = 435                         
# units = specified
# name 0 = scan: Scan Count
# name 1 = timeJ: Julian Days
# name 2 = dz/dtM: Descent Rate [m/s]
# name 3 = prDM: Pressure, Digiquartz [db]
# name 4 = t090C: Temperature [ITS-90, deg C]
# name 5 = c0S/m: Conductivity [S/m]
# name 6 = sbeox0V: Oxygen Voltage, SBE 43
# name 7 = depSM: Depth [salt water, m]
# name 8 = flSP: Fluorescence, Seapoint
# name 9 = potemp090C: Potential Temperature [ITS-90, deg C]
# name 10 = sal00: Salinity [PSU]
# name 11 = density00: Density [density, Kg/m^3]
# name 12 = sigma-é00: Density [sigma-theta, Kg/m^3]
# name 13 = sbeox0ML/L: Oxygen, SBE 43 [ml/l], WS = 2
# name 14 = nbin: number of scans per bin
# name 15 = flag: flag
# span 0 =      11641,      35778       
# span 1 = 164.446088, 164.457728       
# span 2 =   -173.362,    824.343       
# span 3 =     12.086,    449.622       
# span 4 =     8.0146,    21.9283       
# span 5 =   3.646345,   5.160595       
# span 6 =     2.0629,     3.4843       
# span 7 =     12.000,    446.000       
# span 8 = 1.6712e-02, 5.5658e-02       
# span 9 =     7.9679,    21.9207       
# span 10 =    35.0034,    36.4921      
# span 11 =  1025.1559,  1029.8589      
# span 12 =    25.1041,    27.8337      
# span 13 =    3.10908,    4.54715      
# span 14 =          0,         68      
# span 15 = 0.0000e+00, 0.0000e+00      
# interval = meters: 1                  
# start_time = Jun 12 2012 10:34:17
# bad_flag = -9.990e-29
# sensor 0 = Frequency  0  temperature, 4821, 05-sep-07
# sensor 1 = Frequency  1  conductivity, 3367, 05-mar-08, cpcor = -9.5700e-08
# sensor 2 = Frequency  2  pressure, 106018, 28-sep-07
# sensor 3 = Extrnl Volt  0  Oxygen, SBE, primary, 0802, 30-nov-07
# sensor 4 = Extrnl Volt  2  Fluorometer, Seapoint, primary
# datcnv_date = Jun 12 2012 12:10:29, 7.17
# datcnv_in = D:\ACEX\brutos\MCTV001.hex D:\ACEX\arqconfig\AC0882.con
# datcnv_skipover = 10808
# filter_date = Jun 12 2012 12:12:34, 7.17
# filter_in = D:\ACEX\dat cnv\MCTV001.cnv
# filter_low_pass_tc_A = 0.150
# filter_low_pass_tc_B = 0.000
# filter_low_pass_A_vars = prDM
# filter_low_pass_B_vars = c0S/m
# alignctd_date = Jun 12 2012 12:17:27, 7.17
# alignctd_in = D:\ACEX\filter\MCTV001.cnv
# alignctd_adv = c0S/m 0.073, sbeox0V 2.000                                                                                                                                                                                          
# wildedit_date = Jun 12 2012 12:19:43, 7.17
# wildedit_in = D:\ACEX\align\MCTV001.cnv
# wildedit_pass1_nstd = 2.0
# wildedit_pass2_nstd = 20.0
# wildedit_pass2_mindelta = 1.000e+002
# wildedit_npoint = 1000
# wildedit_vars = dz/dtM prDM t090C c0S/m sbeox0V depSM flSP
# wildedit_excl_bad_scans = yes
# celltm_date = Jun 12 2012 12:20:45, 7.17
# celltm_in = D:\ACEX\wildedit\MCTV001.cnv
# celltm_alpha = 0.0300, 0.0000
# celltm_tau = 7.0000, 0.0000
# celltm_temp_sensor_use_for_cond = primary, 
# loopedit_date = Jun 12 2012 12:21:54, 7.17
# loopedit_in = D:\ACEX\celltm\MCTV001.cnv
# loopedit_minVelocity = 0.250                                                                                            
# loopedit_surfaceSoak: minDepth = 5.0, maxDepth = 20, useDeckPress = 1                                                   
# loopedit_excl_bad_scans = yes
# Derive_date = Jun 12 2012 12:24:30, 7.17
# Derive_in = D:\ACEX\loopedit\MCTV001.cnv D:\ACEX\arqconfig\AC0882.con
# derive_time_window_docdt = seconds: 2
# binavg_date = Jun 12 2012 12:25:41, 7.17
# binavg_in = D:\ACEX\derive\MCTV001.cnv
# binavg_bintype = meters
# binavg_binsize = 1
# binavg_excl_bad_scans = yes
# binavg_skipover = 0
# binavg_surface_bin = no, min = 0.000, max = 0.000, value = 0.000
# split_date = Jun 12 2012 12:26:39, 7.17
# split_in = D:\ACEX\binavg\MCTV001.cnv
# split_excl_bad_scans = yes
# file_type = ascii
*END*
      11641 164.446088      0.305     12.086    21.8143   5.116124     3.4843     12.000 4.9232e-02    21.8119    36.0965  1025.1559    25.1041    4.54715         25 0.0000e+00
      11701 164.446117      0.568     13.079    21.8149   5.116772     3.4809     13.000 4.9216e-02    21.8124    36.1007  1025.1633    25.1072    4.54205         39 0.0000e+00
      11798 164.446164      0.306     14.092    21.8148   5.117470     3.4683     14.000 4.9068e-02    21.8120    36.1060  1025.1717    25.1113    4.52189         31 0.0000e+00
      11858 164.446193      0.565     15.093    21.8111   5.117297     3.4715     15.000 4.9475e-02    21.8082    36.1074  1025.1781    25.1134    4.52803         42 0.0000e+00
      11950 164.446237      0.590     16.097    21.8142   5.118956     3.4736     16.000 4.9452e-02    21.8111    36.1176  1025.1894    25.1204    4.53158         42 0.0000e+00
      12032 164.446277      0.280     17.116    21.8251   5.122175     3.4724     17.000 4.9320e-02    21.8218    36.1336  1025.2029    25.1296    4.52899         41 0.0000e+00
      12110 164.446314      0.305     18.109    21.8367   5.125255     3.4682     18.000 4.9381e-02    21.8331    36.1481  1025.2150    25.1374    4.52136         41 0.0000e+00
      12215 164.446365      0.242     19.109    21.8412   5.126439     3.4685     19.000 4.9294e-02    21.8374    36.1533  1025.2220    25.1402    4.52206         48 0.0000e+00
      12291 164.446402      0.467     20.130    21.8515   5.128573     3.4694     20.000 4.9156e-02    21.8475    36.1612  1025.2296    25.1434    4.52317         38 0.0000e+00
      12350 164.446430      0.392     21.136    21.8568   5.129554     3.4653     21.000 4.9203e-02    21.8526    36.1642  1025.2348    25.1442    4.51658         47 0.0000e+00
      12417 164.446462      0.398     22.144    21.8590   5.130275     3.4652     22.000 4.9349e-02    21.8546    36.1678  1025.2412    25.1463    4.51668         46 0.0000e+00
      12458 164.446482      0.585     23.151    21.8643   5.131809     3.4645     23.000 4.9246e-02    21.8598    36.1751  1025.2496    25.1505    4.51552         36 0.0000e+00
      12498 164.446501      0.613     24.158    21.8778   5.135082     3.4654     24.000 4.9237e-02    21.8730    36.1895  1025.2611    25.1577    4.51620         43 0.0000e+00
      12543 164.446523      0.533     25.160    21.8846   5.137435     3.4649     25.000 4.9100e-02    21.8796    36.2020  1025.2731    25.1654    4.51515         42 0.0000e+00
      12612 164.446556      0.333     26.173    21.8832   5.138333     3.4589     26.000 4.9237e-02    21.8780    36.2100  1025.2839    25.1719    4.50594         50 0.0000e+00
      12688 164.446593      0.470     27.180    21.8851   5.139868     3.4567     27.000 4.9395e-02    21.8797    36.2202  1025.2956    25.1792    4.50244         36 0.0000e+00
      12722 164.446609      0.662     28.181    21.8823   5.141018     3.4577     28.000 4.9289e-02    21.8768    36.2313  1025.3091    25.1884    4.50461         38 0.0000e+00
      12765 164.446630      0.565     29.190    21.8862   5.144108     3.4586     29.000 4.9368e-02    21.8804    36.2522  1025.3283    25.2034    4.50589         44 0.0000e+00
      12821 164.446657      0.430     30.195    21.8992   5.148053     3.4533     30.000 4.9203e-02    21.8932    36.2722  1025.3442    25.2150    4.49637         61 0.0000e+00
      12884 164.446688      0.377     31.204    21.9083   5.150480     3.4518     31.000 4.9396e-02    21.9021    36.2835  1025.3546    25.2210    4.49344         42 0.0000e+00
      12925 164.446707      0.590     32.207    21.9127   5.151681     3.4470     32.000 4.9435e-02    21.9063    36.2889  1025.3619    25.2240    4.48577         43 0.0000e+00
      12985 164.446736      0.368     33.207    21.9148   5.152603     3.4482     33.000 4.9333e-02    21.9083    36.2940  1025.3695    25.2273    4.48802         56 0.0000e+00
      13025 164.446756      0.591     34.222    21.9185   5.154406     3.4481     34.000 4.9193e-02    21.9117    36.3049  1025.3811    25.2346    4.48792         31 0.0000e+00
      13062 164.446773      0.685     35.226    21.9126   5.154807     3.4495     35.000 4.9237e-02    21.9056    36.3127  1025.3930    25.2423    4.49105         40 0.0000e+00
      13116 164.446799      0.400     36.229    21.9084   5.155813     3.4439     36.000 4.9369e-02    21.9012    36.3239  1025.4071    25.2520    4.48256         43 0.0000e+00
      13224 164.446851      0.284     37.245    21.9192   5.158727     3.4440     37.000 4.9423e-02    21.9118    36.3375  1025.4188    25.2594    4.48210         50 0.0000e+00
      13313 164.446894      0.265     38.252    21.9283   5.160595     3.4410     38.000 4.9449e-02    21.9207    36.3443  1025.4258    25.2621    4.47702         40 0.0000e+00
      13384 164.446928      0.406     39.223    21.8763   5.157766     3.4310     39.000 4.9187e-02    21.8685    36.3653  1025.4606    25.2927    4.46472         36 0.0000e+00
      13476 164.446973      0.265     40.276    21.7609   5.150132     3.4095     40.000 4.9181e-02    21.7530    36.4016  1025.5252    25.3528    4.43801         39 0.0000e+00
      13578 164.447022      0.398     41.259    21.7265   5.146200     3.3988     41.000 4.9337e-02    21.7184    36.3991  1025.5372    25.3605    4.42376         40 0.0000e+00
      13643 164.447053      0.681     42.280    21.6746   5.141350     3.3890     42.000 4.9277e-02    21.6663    36.4040  1025.5599    25.3788    4.41207         25 0.0000e+00
      13670 164.447067      0.825     43.272    21.6374   5.140882     3.3858     43.000 4.9095e-02    21.6289    36.4314  1025.5955    25.4101    4.40955         33 0.0000e+00
      13736 164.447098      0.355     44.281    21.5660   5.136869     3.3686     44.000 4.9185e-02    21.5573    36.4595  1025.6412    25.4515    4.38649         53 0.0000e+00
      13794 164.447126      0.467     45.302    21.4840   5.131020     3.3572     45.000 4.9286e-02    21.4751    36.4820  1025.6856    25.4915    4.37403         44 0.0000e+00
      13839 164.447148      0.530     46.305    21.3210   5.115017     3.3395     46.000 4.9125e-02    21.3120    36.4921  1025.7430    25.5444    4.35744         47 0.0000e+00
      13883 164.447169      0.551     47.309    21.1461   5.095811     3.3243     47.000 4.9236e-02    21.1369    36.4866  1025.7915    25.5885    4.34630         43 0.0000e+00
      13980 164.447216      0.245     48.322    20.7498   5.049284     3.2815     48.000 4.9110e-02    20.7406    36.4490  1025.8758    25.6681    4.30648         46 0.0000e+00
      14040 164.447245      0.408     49.326    20.3405   5.003675     3.2385     49.000 4.9067e-02    20.3313    36.4291  1025.9760    25.7638    4.26626         59 0.0000e+00
      14104 164.447276      0.399     50.329    19.8358   4.944584     3.2045     50.000 4.8969e-02    19.8265    36.3793  1026.0771    25.8601    4.24875         58 0.0000e+00
      14168 164.447307      0.348     51.347    19.6168   4.919742     3.1777     51.000 4.9057e-02    19.6074    36.3634  1026.1274    25.9058    4.22059         40 0.0000e+00
      14202 164.447323      0.650     52.345    19.3446   4.889545     3.1665     52.000 4.8880e-02    19.3351    36.3488  1026.1919    25.9658    4.22300         30 0.0000e+00
      14236 164.447339      0.726     53.349    19.1949   4.875038     3.1587     53.000 4.8933e-02    19.1853    36.3579  1026.2422    26.0117    4.22127         39 0.0000e+00
      14276 164.447359      0.593     54.363    19.0141   4.855206     3.1449     54.000 4.8909e-02    19.0044    36.3495  1026.2871    26.0520    4.21207         35 0.0000e+00
      14309 164.447374      0.714     55.366    18.8421   4.833733     3.1332     55.000 4.8799e-02    18.8322    36.3193  1026.3126    26.0730    4.20621         31 0.0000e+00
      14350 164.447394      0.620     56.371    18.4984   4.794431     3.1217     56.000 4.8861e-02    18.4885    36.2888  1026.3813    26.1371    4.21390         52 0.0000e+00
      14406 164.447422      0.374     57.384    18.2784   4.766401     3.1070     57.000 4.8838e-02    18.2684    36.2440  1026.4071    26.1582    4.20679         41 0.0000e+00
      14435 164.447435      0.727     58.391    17.8088   4.715289     3.0946     58.000 4.8794e-02    17.7987    36.2219  1026.5118    26.2581    4.22249         26 0.0000e+00
      14460 164.447447      0.931     59.390    17.7669   4.711796     3.0871     59.000 4.9107e-02    17.7568    36.2287  1026.5318    26.2737    4.21283         23 0.0000e+00
      14496 164.447465      0.746     60.395    17.7118   4.705350     3.0812     60.000 4.9017e-02    17.7015    36.2217  1026.5445    26.2820    4.20739         50 0.0000e+00
      14551 164.447491      0.376     61.413    17.4609   4.675005     3.0596     61.000 4.8951e-02    17.4506    36.1822  1026.5801    26.3129    4.19018         42 0.0000e+00
      14581 164.447506      0.701     62.417    17.0215   4.625998     3.0319     62.000 4.9289e-02    17.0112    36.1482  1026.6654    26.3933    4.17642         25 0.0000e+00
      14608 164.447519      0.894     63.415    16.8747   4.610208     3.0085     63.000 4.8880e-02    16.8642    36.1413  1026.6997    26.4231    4.14654         28 0.0000e+00
      14646 164.447537      0.685     64.424    16.7572   4.596799     2.9783     64.000 4.8971e-02    16.7466    36.1287  1026.7225    26.4414    4.10205         46 0.0000e+00
      14689 164.447558      0.533     65.440    16.3498   4.547642     2.9281     65.000 4.8621e-02    16.3392    36.0613  1026.7716    26.4855    4.04469         36 0.0000e+00
      14724 164.447575      0.687     66.438    16.0935   4.520175     2.8871     66.000 4.8674e-02    16.0829    36.0485  1026.8260    26.5354    3.99044         37 0.0000e+00
      14773 164.447598      0.476     67.452    16.0381   4.514429     2.8566     67.000 4.8773e-02    16.0274    36.0471  1026.8423    26.5471    3.93945         48 0.0000e+00
      14807 164.447615      0.633     68.461    16.0129   4.511556     2.8449     68.000 4.8602e-02    16.0020    36.0439  1026.8501    26.5505    3.92055         26 0.0000e+00
      14831 164.447626      0.924     69.459    15.9813   4.507879     2.8382     69.000 4.8733e-02    15.9703    36.0393  1026.8583    26.5543    3.91137         23 0.0000e+00
      14861 164.447641      0.884     70.463    15.9191   4.501000     2.8249     70.000 4.8521e-02    15.9079    36.0338  1026.8729    26.5644    3.89217         40 0.0000e+00
      14915 164.447667      0.415     71.474    15.8924   4.498291     2.8147     71.000 4.8710e-02    15.8811    36.0334  1026.8832    26.5703    3.87613         54 0.0000e+00
      14961 164.447689      0.533     72.487    15.8724   4.496118     2.8132     72.000 4.8435e-02    15.8609    36.0317  1026.8910    26.5736    3.87528         37 0.0000e+00
      14992 164.447704      0.715     73.493    15.8673   4.495661     2.8088     73.000 4.8674e-02    15.8557    36.0319  1026.8967    26.5749    3.86822         29 0.0000e+00
      15021 164.447718      0.833     74.495    15.8606   4.495001     2.8057     74.000 4.8533e-02    15.8488    36.0317  1026.9025    26.5763    3.86356         28 0.0000e+00
      15056 164.447735      0.735     75.500    15.8332   4.491828     2.7983     75.000 4.8565e-02    15.8213    36.0277  1026.9102    26.5796    3.85252         40 0.0000e+00
      15099 164.447755      0.555     76.514    15.7823   4.485745     2.7907     76.000 4.8510e-02    15.7702    36.0190  1026.9197    26.5846    3.84306         41 0.0000e+00
      15135 164.447773      0.649     77.519    15.6741   4.472849     2.7817     77.000 4.8686e-02    15.6619    36.0011  1026.9352    26.5955    3.83542         31 0.0000e+00
      15167 164.447788      0.740     78.519    15.5907   4.463999     2.7725     78.000 4.8909e-02    15.5784    35.9970  1026.9555    26.6113    3.82503         34 0.0000e+00
      15213 164.447811      0.540     79.530    15.5790   4.462899     2.7623     79.000 4.8602e-02    15.5666    35.9973  1026.9629    26.6143    3.80768         55 0.0000e+00
      15261 164.447834      0.490     80.544    15.5732   4.462191     2.7601     80.000 4.8778e-02    15.5606    35.9959  1026.9676    26.6145    3.80444         35 0.0000e+00
      15294 164.447849      0.700     81.546    15.5529   4.459813     2.7567     81.000 4.8540e-02    15.5401    35.9925  1026.9741    26.6165    3.80037         33 0.0000e+00
      15325 164.447865      0.766     82.552    15.5272   4.456999     2.7506     82.000 4.8421e-02    15.5144    35.9901  1026.9825    26.6205    3.79153         32 0.0000e+00
      15359 164.447881      0.721     83.562    15.4906   4.452588     2.7440     83.000 4.8518e-02    15.4776    35.9833  1026.9900    26.6236    3.78252         34 0.0000e+00
      15390 164.447896      0.756     84.566    15.4463   4.447804     2.7377     84.000 4.8588e-02    15.4332    35.9801  1027.0021    26.6311    3.77472         29 0.0000e+00
      15428 164.447914      0.680     85.570    15.3823   4.440294     2.7309     85.000 4.8582e-02    15.3690    35.9702  1027.0134    26.6380    3.76753         52 0.0000e+00
      15491 164.447944      0.320     86.586    15.3462   4.436381     2.7240     86.000 4.8465e-02    15.3328    35.9673  1027.0238    26.6438    3.75780         50 0.0000e+00
      15524 164.447961      0.640     87.592    15.3116   4.432543     2.7215     87.000 4.8588e-02    15.2981    35.9637  1027.0333    26.6489    3.75634         24 0.0000e+00
      15549 164.447973      0.914     88.592    15.3117   4.432593     2.7194     88.000 4.8534e-02    15.2981    35.9637  1027.0377    26.6489    3.75288         24 0.0000e+00
      15576 164.447985      0.946     89.597    15.3092   4.432365     2.7164     89.000 4.8628e-02    15.2954    35.9635  1027.0426    26.6493    3.74795         29 0.0000e+00
      15611 164.448003      0.731     90.605    15.3010   4.431441     2.7160     90.000 4.8467e-02    15.2871    35.9622  1027.0478    26.6502    3.74837         45 0.0000e+00
      15661 164.448027      0.459     91.619    15.2823   4.429354     2.7125     91.000 4.8553e-02    15.2681    35.9600  1027.0549    26.6527    3.74375         46 0.0000e+00
      15701 164.448046      0.594     92.623    15.2782   4.428963     2.7113     92.000 4.8525e-02    15.2639    35.9598  1027.0601    26.6535    3.74235         35 0.0000e+00
      15738 164.448064      0.663     93.627    15.2773   4.428942     2.7117     93.000 4.8463e-02    15.2629    35.9600  1027.0649    26.6539    3.74362         39 0.0000e+00
      15778 164.448083      0.597     94.637    15.2667   4.427608     2.7074     94.000 4.8611e-02    15.2521    35.9572  1027.0695    26.6542    3.73707         37 0.0000e+00
      15812 164.448099      0.693     95.642    15.2307   4.423362     2.7064     95.000 4.8518e-02    15.2160    35.9511  1027.0774    26.6575    3.73841         34 0.0000e+00
      15850 164.448118      0.653     96.649    15.1780   4.417421     2.6988     96.000 4.8558e-02    15.1631    35.9451  1027.0890    26.6647    3.72860         39 0.0000e+00
      15888 164.448136      0.615     97.660    15.1447   4.413684     2.6931     97.000 4.8510e-02    15.1298    35.9411  1027.0979    26.6690    3.72103         37 0.0000e+00
      15922 164.448153      0.703     98.664    15.1007   4.408504     2.6886     98.000 4.8648e-02    15.0856    35.9339  1027.1066    26.6733    3.71639         32 0.0000e+00
      15958 164.448170      0.689     99.671    15.0169   4.398545     2.6774     99.000 4.8446e-02    15.0017    35.9195  1027.1188    26.6808    3.70231         37 0.0000e+00
      15993 164.448187      0.685    100.679    14.9584   4.392458     2.6705    100.000 4.8608e-02    14.9431    35.9172  1027.1345    26.6920    3.69404         31 0.0000e+00
      16033 164.448206      0.616    101.682    14.9532   4.391936     2.6660    101.000 4.8510e-02    14.9378    35.9168  1027.1397    26.6929    3.68659         48 0.0000e+00
      16080 164.448229      0.510    102.696    14.9374   4.389960     2.6600    102.000 4.8441e-02    14.9219    35.9128  1027.1447    26.6933    3.67703         43 0.0000e+00
      16116 164.448246      0.638    103.703    14.9083   4.386803     2.6554    103.000 4.8350e-02    14.8926    35.9103  1027.1537    26.6978    3.67103         30 0.0000e+00
      16147 164.448261      0.763    104.704    14.9026   4.386229     2.6524    104.000 4.8561e-02    14.8868    35.9098  1027.1590    26.6987    3.66629         30 0.0000e+00
      16185 164.448279      0.679    105.710    14.8998   4.385964     2.6511    105.000 4.8603e-02    14.8838    35.9096  1027.1639    26.6992    3.66454         41 0.0000e+00
      16228 164.448300      0.545    106.723    14.8799   4.383587     2.6467    106.000 4.8701e-02    14.8637    35.9057  1027.1698    26.7007    3.65830         43 0.0000e+00
      16265 164.448318      0.649    107.728    14.8600   4.381397     2.6412    107.000 4.8533e-02    14.8437    35.9035  1027.1770    26.7034    3.64985         32 0.0000e+00
      16299 164.448335      0.701    108.735    14.8468   4.379904     2.6388    108.000 4.8604e-02    14.8304    35.9016  1027.1828    26.7048    3.64678         36 0.0000e+00
      16336 164.448352      0.667    109.739    14.8154   4.376232     2.6355    109.000 4.8519e-02    14.7988    35.8964  1027.1903    26.7077    3.64341         38 0.0000e+00
      16375 164.448371      0.622    110.752    14.7601   4.369980     2.6373    110.000 4.8500e-02    14.7434    35.8895  1027.2017    26.7146    3.65138         36 0.0000e+00
      16408 164.448387      0.708    111.755    14.7159   4.365008     2.6433    111.000 4.8552e-02    14.6991    35.8842  1027.2118    26.7201    3.66643         34 0.0000e+00
      16446 164.448405      0.661    112.764    14.6681   4.359391     2.6494    112.000 4.8589e-02    14.6512    35.8761  1027.2205    26.7244    3.68216         39 0.0000e+00
      16484 164.448423      0.623    113.771    14.5914   4.350653     2.6500    113.000 4.8293e-02    14.5744    35.8660  1027.2341    26.7333    3.68938         34 0.0000e+00
      16518 164.448440      0.692    114.776    14.5194   4.342088     2.6309    114.000 4.8323e-02    14.5023    35.8530  1027.2443    26.7389    3.65923         33 0.0000e+00
      16560 164.448460      0.594    115.780    14.4450   4.334064     2.6011    115.000 4.8377e-02    14.4278    35.8472  1027.2605    26.7506    3.60846         53 0.0000e+00
      16618 164.448488      0.374    116.798    14.4285   4.332273     2.5903    116.000 4.8386e-02    14.4112    35.8455  1027.2673    26.7528    3.58977         43 0.0000e+00
      16650 164.448504      0.671    117.800    14.4175   4.331109     2.5915    117.000 4.8092e-02    14.4000    35.8445  1027.2733    26.7545    3.59325         28 0.0000e+00
      16681 164.448519      0.808    118.798    14.4134   4.330769     2.5959    118.000 4.8484e-02    14.3958    35.8447  1027.2788    26.7555    3.60234         36 0.0000e+00
      16763 164.448558      0.285    119.818    14.3539   4.323567     2.6247    119.000 4.8308e-02    14.3362    35.8326  1027.2870    26.7591    3.66224         36 0.0000e+00
      16803 164.448577      0.613    120.819    14.2871   4.316306     2.6479    120.000 4.8441e-02    14.2693    35.8267  1027.3013    26.7689    3.71185         34 0.0000e+00
      16850 164.448600      0.516    121.826    14.2522   4.312654     2.6702    121.000 4.8586e-02    14.2343    35.8247  1027.3118    26.7748    3.75761         59 0.0000e+00
      16912 164.448630      0.378    122.839    14.2110   4.307599     2.6816    122.000 4.8295e-02    14.1930    35.8155  1027.3180    26.7765    3.78307         42 0.0000e+00
      16945 164.448646      0.668    123.839    14.1664   4.302647     2.6891    123.000 4.8270e-02    14.1483    35.8104  1027.3282    26.7821    3.80140         30 0.0000e+00
      17013 164.448678      0.379    124.850    14.1240   4.297809     2.6963    124.000 4.8498e-02    14.1057    35.8043  1027.3371    26.7865    3.81898         46 0.0000e+00
      17071 164.448706      0.550    125.858    14.0862   4.293642     2.7013    125.000 4.8450e-02    14.0678    35.8001  1027.3465    26.7913    3.83219         25 0.0000e+00
      17101 164.448721      0.824    126.854    14.0615   4.291066     2.7054    126.000 4.8412e-02    14.0431    35.7986  1027.3550    26.7954    3.84246         37 0.0000e+00
      17184 164.448761      0.259    127.874    14.0582   4.290754     2.7126    127.000 4.8572e-02    14.0396    35.7983  1027.3600    26.7960    3.85705         41 0.0000e+00
      17231 164.448784      0.518    128.876    14.0454   4.289255     2.7130    128.000 4.8605e-02    14.0266    35.7958  1027.3653    26.7968    3.85930         52 0.0000e+00
      17286 164.448810      0.417    129.887    13.9965   4.283417     2.7098    129.000 4.8450e-02    13.9776    35.7864  1027.3729    26.7998    3.85757         45 0.0000e+00
      17322 164.448827      0.632    130.889    13.9596   4.279441     2.7094    130.000 4.8306e-02    13.9406    35.7831  1027.3827    26.8051    3.86024         30 0.0000e+00
      17359 164.448845      0.699    131.890    13.9356   4.276773     2.7107    131.000 4.8403e-02    13.9166    35.7800  1027.3899    26.8078    3.86527         36 0.0000e+00
      17461 164.448894      0.258    132.911    13.9235   4.275472     2.7232    132.000 4.8355e-02    13.9043    35.7787  1027.3960    26.8094    3.89082         48 0.0000e+00
      17502 164.448914      0.561    133.912    13.9192   4.275058     2.7243    133.000 4.8571e-02    13.8998    35.7784  1027.4012    26.8101    3.89381         41 0.0000e+00
      17546 164.448935      0.549    134.920    13.9170   4.274852     2.7241    134.000 4.8666e-02    13.8975    35.7780  1027.4058    26.8103    3.89400         42 0.0000e+00
      17589 164.448956      0.562    135.927    13.9062   4.273649     2.7241    135.000 4.8455e-02    13.8865    35.7765  1027.4114    26.8114    3.89546         47 0.0000e+00
      17673 164.448997      0.271    136.939    13.9035   4.273418     2.7249    136.000 4.8556e-02    13.8837    35.7763  1027.4164    26.8119    3.89780         34 0.0000e+00
      17734 164.449026      0.505    137.944    13.9048   4.273634     2.7235    137.000 4.8534e-02    13.8848    35.7768  1027.4209    26.8120    3.89547         28 0.0000e+00
      17759 164.449039      0.868    138.946    13.9046   4.273638     2.7235    138.000 4.8232e-02    13.8845    35.7765  1027.4252    26.8119    3.89591         26 0.0000e+00
      17791 164.449054      0.826    139.955    13.9029   4.273449     2.7240    139.000 4.8579e-02    13.8826    35.7760  1027.4296    26.8119    3.89760         38 0.0000e+00
      17831 164.449073      0.626    140.959    13.8929   4.272371     2.7244    140.000 4.8272e-02    13.8725    35.7747  1027.4352    26.8130    3.89968         42 0.0000e+00
      17914 164.449113      0.272    141.975    13.8761   4.270392     2.7262    141.000 4.8359e-02    13.8555    35.7714  1027.4408    26.8141    3.90508         41 0.0000e+00
      17958 164.449134      0.567    142.981    13.8666   4.269455     2.7269    142.000 4.8336e-02    13.8460    35.7710  1027.4469    26.8158    3.90783         34 0.0000e+00
      17990 164.449150      0.731    143.985    13.8658   4.269405     2.7295    143.000 4.8408e-02    13.8450    35.7709  1027.4515    26.8159    3.91339         34 0.0000e+00
      18028 164.449168      0.667    144.990    13.8528   4.267801     2.7314    144.000 4.8432e-02    13.8319    35.7676  1027.4561    26.8161    3.91856         42 0.0000e+00
      18085 164.449196      0.413    145.999    13.8030   4.262364     2.7350    145.000 4.8498e-02    13.7820    35.7626  1027.4673    26.8227    3.93014         68 0.0000e+00
      18147 164.449226      0.392    147.008    13.7857   4.260363     2.7407    146.000 4.8614e-02    13.7646    35.7594  1027.4731    26.8239    3.94307         48 0.0000e+00
      18195 164.449249      0.526    148.010    13.7787   4.259714     2.7431    147.000 4.8511e-02    13.7574    35.7595  1027.4790    26.8255    3.94892         42 0.0000e+00
      18281 164.449290      0.276    149.030    13.7792   4.259822     2.7428    148.000 4.8580e-02    13.7578    35.7595  1027.4835    26.8254    3.94878         42 0.0000e+00
      18314 164.449306      0.642    150.031    13.7753   4.259421     2.7442    149.000 4.8459e-02    13.7537    35.7590  1027.4884    26.8259    3.95239         29 0.0000e+00
      18344 164.449320      0.814    151.033    13.7683   4.258623     2.7453    150.000 4.8389e-02    13.7466    35.7577  1027.4933    26.8263    3.95552         35 0.0000e+00
      18389 164.449342      0.534    152.045    13.7562   4.257299     2.7486    151.000 4.8619e-02    13.7343    35.7561  1027.4991    26.8276    3.96340         48 0.0000e+00
      18431 164.449362      0.578    153.049    13.7482   4.256436     2.7484    152.000 4.8510e-02    13.7263    35.7549  1027.5043    26.8284    3.96435         37 0.0000e+00
      18510 164.449401      0.321    154.059    13.7371   4.255209     2.7484    153.000 4.8528e-02    13.7150    35.7534  1027.5100    26.8297    3.96582         43 0.0000e+00
      18573 164.449431      0.519    155.065    13.7265   4.254051     2.7480    154.000 4.8684e-02    13.7043    35.7519  1027.5156    26.8307    3.96633         31 0.0000e+00
      18622 164.449455      0.549    156.069    13.7178   4.253137     2.7515    155.000 4.8408e-02    13.6954    35.7510  1027.5212    26.8319    3.97434         45 0.0000e+00
      18704 164.449494      0.354    157.082    13.7139   4.252733     2.7522    156.000 4.8524e-02    13.6914    35.7505  1027.5261    26.8323    3.97666         42 0.0000e+00
      18796 164.449538      0.358    158.084    13.7109   4.252464     2.7527    157.000 4.8375e-02    13.6882    35.7503  1027.5310    26.8328    3.97834         55 0.0000e+00
      18914 164.449595      0.366    159.093    13.6696   4.247376     2.7488    158.000 4.8354e-02    13.6468    35.7406  1027.5367    26.8339    3.97476         58 0.0000e+00
      19043 164.449658      0.187    160.102    13.6389   4.244234     2.7531    159.000 4.8545e-02    13.6161    35.7391  1027.5466    26.8393    3.98624         35 0.0000e+00
      19168 164.449718      0.232    161.111    13.6028   4.240148     2.7584    160.000 4.8504e-02    13.5798    35.7340  1027.5547    26.8428    3.99997         43 0.0000e+00
      19252 164.449758      0.333    162.121    13.5844   4.238002     2.7608    161.000 4.8409e-02    13.5614    35.7305  1027.5603    26.8439    4.00684         43 0.0000e+00
      19300 164.449781      0.551    163.120    13.5538   4.234567     2.7603    162.000 4.8194e-02    13.5306    35.7263  1027.5680    26.8471    4.00891         43 0.0000e+00
      19426 164.449842      0.482    164.131    13.5186   4.230339     2.7620    163.000 4.8300e-02    13.4953    35.7189  1027.5742    26.8487    4.01584         36 0.0000e+00
      19467 164.449862      0.570    165.138    13.4745   4.225795     2.7686    164.000 4.8358e-02    13.4511    35.7167  1027.5862    26.8561    4.03285         48 0.0000e+00
      19512 164.449884      0.541    166.147    13.4555   4.223608     2.7797    165.000 4.8303e-02    13.4319    35.7134  1027.5921    26.8575    4.05662         41 0.0000e+00
      19551 164.449902      0.618    167.152    13.4129   4.218590     2.7867    166.000 4.8487e-02    13.3893    35.7053  1027.5992    26.8600    4.07444         38 0.0000e+00
      19683 164.449966      0.402    168.160    13.3342   4.210087     2.7981    167.000 4.8433e-02    13.3105    35.6981  1027.6146    26.8706    4.10402         42 0.0000e+00
      21262 164.450728      0.382    169.170    13.2876   4.204762     2.8024    168.000 4.8474e-02    13.2638    35.6908  1027.6232    26.8746    4.11689         53 0.0000e+00
      24193 164.452141      0.523    170.174    13.2441   4.199963     2.8009    169.000 4.8305e-02    13.2203    35.6856  1027.6326    26.8794    4.11828         52 0.0000e+00
      24344 164.452214      0.365    171.182    13.2274   4.198032     2.8005    170.000 4.8297e-02    13.2034    35.6825  1027.6381    26.8805    4.11949         54 0.0000e+00
      24442 164.452261      0.203    172.191    13.1958   4.194500     2.8012    171.000 4.8344e-02    13.1717    35.6781  1027.6458    26.8836    4.12414         32 0.0000e+00
      24556 164.452316      0.299    173.197    13.1439   4.188427     2.8004    172.000 4.8387e-02    13.1198    35.6686  1027.6536    26.8868    4.12766         59 0.0000e+00
      24605 164.452340      0.471    174.205    13.0889   4.182404     2.7949    173.000 4.8310e-02    13.0647    35.6625  1027.6647    26.8932    4.12215         55 0.0000e+00
      24671 164.452372      0.335    175.209    13.0522   4.178171     2.7946    174.000 4.8599e-02    13.0279    35.6562  1027.6719    26.8958    4.12538         35 0.0000e+00
      24771 164.452420      0.279    176.227    12.9716   4.169066     2.7963    175.000 4.8273e-02    12.9472    35.6446  1027.6840    26.9031    4.13610         43 0.0000e+00
      24802 164.452435      0.644    177.225    12.9320   4.164606     2.7990    176.000 4.8366e-02    12.9076    35.6387  1027.6920    26.9066    4.14546         36 0.0000e+00
      24844 164.452455      0.596    178.235    12.8510   4.155438     2.7977    177.000 4.8441e-02    12.8265    35.6268  1027.7038    26.9136    4.15065         49 0.0000e+00
      24888 164.452476      0.546    179.241    12.7260   4.141595     2.8002    178.000 4.8564e-02    12.7015    35.6114  1027.7217    26.9267    4.16711         40 0.0000e+00
      24962 164.452512      0.340    180.250    12.6952   4.138507     2.8120    179.000 4.8534e-02    12.6706    35.6103  1027.7316    26.9320    4.19357         40 0.0000e+00
      25029 164.452544      0.464    181.261    12.6860   4.137438     2.8167    180.000 4.8514e-02    12.6614    35.6082  1027.7364    26.9322    4.20442         30 0.0000e+00
      25055 164.452557      0.813    182.262    12.6683   4.135483     2.8167    181.000 4.8434e-02    12.6435    35.6057  1027.7425    26.9338    4.20650         27 0.0000e+00
      25087 164.452572      0.836    183.261    12.6502   4.133612     2.8191    182.000 4.8447e-02    12.6253    35.6043  1027.7495    26.9364    4.21351         31 0.0000e+00
      25180 164.452617      0.246    184.284    12.6408   4.132652     2.8212    183.000 4.8665e-02    12.6158    35.6035  1027.7553    26.9376    4.21914         53 0.0000e+00
      25221 164.452637      0.562    185.289    12.6337   4.131949     2.8235    184.000 4.8541e-02    12.6085    35.6031  1027.7610    26.9387    4.22472         33 0.0000e+00
      25252 164.452652      0.746    186.289    12.6320   4.131820     2.8226    185.000 4.8448e-02    12.6067    35.6030  1027.7657    26.9390    4.22373         34 0.0000e+00
      25322 164.452685      0.326    187.304    12.6282   4.131393     2.8235    186.000 4.8247e-02    12.6028    35.6020  1027.7702    26.9391    4.22646         39 0.0000e+00
      25369 164.452708      0.561    188.312    12.6038   4.128587     2.8270    187.000 4.8313e-02    12.5782    35.5976  1027.7762    26.9405    4.23618         30 0.0000e+00
      25401 164.452724      0.791    189.307    12.5772   4.125844     2.8324    188.000 4.8593e-02    12.5516    35.5958  1027.7846    26.9444    4.24991         32 0.0000e+00
      25526 164.452784      0.226    190.332    12.5375   4.121278     2.8357    189.000 4.8356e-02    12.5118    35.5889  1027.7918    26.9469    4.26071         47 0.0000e+00
      25555 164.452798      0.654    191.332    12.4773   4.114707     2.8370    190.000 4.8487e-02    12.4515    35.5820  1027.8030    26.9534    4.26931         31 0.0000e+00
      25591 164.452815      0.704    192.337    12.4659   4.113543     2.8393    191.000 4.8504e-02    12.4400    35.5810  1027.8090    26.9550    4.27552         40 0.0000e+00
      25640 164.452839      0.468    193.341    12.4378   4.110401     2.8409    192.000 4.8457e-02    12.4118    35.5768  1027.8158    26.9572    4.28172         39 0.0000e+00
      25759 164.452896      0.290    194.355    12.4057   4.106848     2.8397    193.000 4.8439e-02    12.3797    35.5724  1027.8233    26.9601    4.28296         64 0.0000e+00
      25817 164.452924      0.408    195.362    12.3918   4.105395     2.8399    194.000 4.8618e-02    12.3656    35.5710  1027.8296    26.9618    4.28513         47 0.0000e+00
      25855 164.452943      0.611    196.368    12.3847   4.104661     2.8391    195.000 4.8500e-02    12.3584    35.5702  1027.8348    26.9625    4.28462         36 0.0000e+00
      25902 164.452966      0.518    197.375    12.3745   4.103582     2.8379    196.000 4.8653e-02    12.3480    35.5690  1027.8405    26.9637    4.28390         60 0.0000e+00
      25984 164.453005      0.250    198.386    12.3675   4.102798     2.8390    197.000 4.8466e-02    12.3409    35.5676  1027.8453    26.9640    4.28727         47 0.0000e+00
      26050 164.453037      0.440    199.397    12.3587   4.101857     2.8389    198.000 4.8555e-02    12.3321    35.5663  1027.8505    26.9647    4.28836         34 0.0000e+00
      26081 164.453052      0.727    200.395    12.3416   4.099913     2.8385    199.000 4.8663e-02    12.3148    35.5633  1027.8560    26.9657    4.28978         35 0.0000e+00
      26126 164.453074      0.545    201.407    12.3264   4.098264     2.8378    200.000 4.8486e-02    12.2995    35.5612  1027.8620    26.9671    4.29039         49 0.0000e+00
      26168 164.453094      0.556    202.416    12.3146   4.096915     2.8366    201.000 4.8245e-02    12.2876    35.5589  1027.8671    26.9677    4.28954         33 0.0000e+00
      26203 164.453111      0.692    203.416    12.2965   4.094842     2.8374    202.000 4.8258e-02    12.2694    35.5555  1027.8725    26.9686    4.29343         42 0.0000e+00
      26280 164.453147      0.280    204.436    12.2523   4.089565     2.8370    203.000 4.8331e-02    12.2251    35.5457  1027.8782    26.9696    4.29738         34 0.0000e+00
      26319 164.453166      0.609    205.437    12.1936   4.083106     2.8350    204.000 4.8547e-02    12.1663    35.5383  1027.8886    26.9752    4.29931         34 0.0000e+00
      26361 164.453187      0.589    206.442    12.1738   4.081064     2.8371    205.000 4.8483e-02    12.1465    35.5367  1027.8957    26.9779    4.30584         54 0.0000e+00
      26419 164.453215      0.395    207.454    12.1610   4.079667     2.8388    206.000 4.8553e-02    12.1336    35.5348  1027.9013    26.9789    4.31097         55 0.0000e+00
      26464 164.453237      0.535    208.463    12.1539   4.078865     2.8382    207.000 4.8377e-02    12.1263    35.5333  1027.9060    26.9791    4.31107         37 0.0000e+00
      26499 164.453253      0.672    209.465    12.1411   4.077409     2.8377    208.000 4.8455e-02    12.1134    35.5309  1027.9111    26.9797    4.31197         35 0.0000e+00
      26543 164.453274      0.578    210.470    12.1266   4.075872     2.8379    209.000 4.8657e-02    12.0988    35.5293  1027.9172    26.9813    4.31427         44 0.0000e+00
      26621 164.453312      0.288    211.490    12.1140   4.074336     2.8392    210.000 4.8421e-02    12.0861    35.5258  1027.9216    26.9811    4.31866         45 0.0000e+00
      26653 164.453328      0.657    212.493    12.0903   4.071386     2.8395    211.000 4.8450e-02    12.0623    35.5192  1027.9256    26.9805    4.32216         25 0.0000e+00
      26680 164.453341      0.871    213.490    12.0472   4.066885     2.8397    212.000 4.8531e-02    12.0191    35.5158  1027.9359    26.9862    4.32688         32 0.0000e+00
      26746 164.453372      0.400    214.509    12.0307   4.064837     2.8407    213.000 4.8513e-02    12.0025    35.5110  1027.9400    26.9857    4.33112         41 0.0000e+00
      26800 164.453398      0.530    215.513    11.9793   4.059230     2.8384    214.000 4.8382e-02    11.9511    35.5047  1027.9497    26.9907    4.33179         32 0.0000e+00
      26833 164.453414      0.732    216.519    11.9520   4.056184     2.8358    215.000 4.8410e-02    11.9237    35.5004  1027.9562    26.9926    4.32974         37 0.0000e+00
      26871 164.453433      0.626    217.529    11.8949   4.049728     2.8306    216.000 4.8486e-02    11.8665    35.4912  1027.9647    26.9964    4.32507         38 0.0000e+00
      26908 164.453451      0.658    218.532    11.8580   4.045813     2.8277    217.000 4.8393e-02    11.8296    35.4875  1027.9735    27.0006    4.32314         38 0.0000e+00
      26994 164.453492      0.240    219.549    11.8535   4.045241     2.8243    218.000 4.8434e-02    11.8249    35.4858  1027.9776    27.0001    4.31716         39 0.0000e+00
      27032 164.453510      0.641    220.555    11.8411   4.044025     2.8234    219.000 4.8500e-02    11.8124    35.4852  1027.9841    27.0021    4.31706         25 0.0000e+00
      27059 164.453524      0.867    221.549    11.8340   4.043325     2.8244    220.000 4.8524e-02    11.8052    35.4847  1027.9895    27.0030    4.32038         31 0.0000e+00
      27108 164.453547      0.518    222.565    11.8246   4.042291     2.8277    221.000 4.8208e-02    11.7957    35.4831  1027.9946    27.0035    4.32851         60 0.0000e+00
      27159 164.453571      0.473    223.576    11.8155   4.041320     2.8296    222.000 4.8263e-02    11.7864    35.4818  1027.9999    27.0043    4.33389         38 0.0000e+00
      27198 164.453590      0.621    224.577    11.8113   4.040936     2.8290    223.000 4.8639e-02    11.7821    35.4816  1028.0050    27.0050    4.33366         44 0.0000e+00
      27271 164.453625      0.299    225.594    11.8104   4.040847     2.8296    224.000 4.8354e-02    11.7811    35.4811  1028.0094    27.0048    4.33560         42 0.0000e+00
      27312 164.453645      0.592    226.598    11.7989   4.039612     2.8319    225.000 4.8337e-02    11.7695    35.4795  1028.0149    27.0058    4.34182         34 0.0000e+00
      27347 164.453662      0.681    227.601    11.7837   4.037947     2.8312    226.000 4.8312e-02    11.7542    35.4772  1028.0205    27.0069    4.34246         37 0.0000e+00
      27388 164.453682      0.582    228.616    11.7764   4.037249     2.8323    227.000 4.8523e-02    11.7468    35.4769  1028.0262    27.0080    4.34602         37 0.0000e+00
      27417 164.453696      0.746    229.621    11.7756   4.037182     2.8323    228.000 4.8498e-02    11.7458    35.4765  1028.0306    27.0080    4.34663         25 0.0000e+00
      27442 164.453708      0.940    230.624    11.7730   4.036926     2.8331    229.000 4.8302e-02    11.7431    35.4761  1028.0352    27.0081    4.34903         27 0.0000e+00
      27487 164.453730      0.633    231.632    11.7694   4.036577     2.8349    230.000 4.8195e-02    11.7394    35.4757  1028.0401    27.0085    4.35362         40 0.0000e+00
      27552 164.453761      0.367    232.650    11.7583   4.035284     2.8366    231.000 4.8432e-02    11.7282    35.4731  1028.0448    27.0086    4.35889         32 0.0000e+00
      27577 164.453773      0.795    233.649    11.7541   4.034983     2.8387    232.000 4.8641e-02    11.7239    35.4737  1028.0505    27.0099    4.36407         25 0.0000e+00
      27607 164.453787      0.865    234.652    11.7491   4.034362     2.8389    233.000 4.8564e-02    11.7187    35.4719  1028.0546    27.0095    4.36561         39 0.0000e+00
      27656 164.453811      0.464    235.669    11.7189   4.031002     2.8385    234.000 4.8315e-02    11.6884    35.4672  1028.0614    27.0116    4.36808         50 0.0000e+00
      27693 164.453829      0.607    236.677    11.6900   4.027765     2.8374    235.000 4.8377e-02    11.6594    35.4626  1028.0679    27.0135    4.36928         29 0.0000e+00
      27721 164.453843      0.832    237.679    11.6764   4.026320     2.8363    236.000 4.8403e-02    11.6457    35.4609  1028.0737    27.0148    4.36892         28 0.0000e+00
      27784 164.453873      0.498    238.687    11.6699   4.025711     2.8367    237.000 4.8532e-02    11.6391    35.4606  1028.0792    27.0158    4.37087         44 0.0000e+00
      27862 164.453910      0.443    239.701    11.6617   4.024775     2.8350    238.000 4.8598e-02    11.6308    35.4588  1028.0839    27.0160    4.36877         35 0.0000e+00
      27892 164.453925      0.727    240.707    11.6428   4.022730     2.8321    239.000 4.8273e-02    11.6118    35.4563  1028.0901    27.0176    4.36525         28 0.0000e+00
      27918 164.453938      0.865    241.713    11.6325   4.021706     2.8323    240.000 4.8033e-02    11.6014    35.4556  1028.0961    27.0190    4.36710         23 0.0000e+00
      27943 164.453950      0.951    242.714    11.6313   4.021631     2.8315    241.000 4.8442e-02    11.6001    35.4555  1028.1007    27.0192    4.36614         24 0.0000e+00
      27989 164.453972      0.629    243.722    11.6282   4.021280     2.8299    242.000 4.8483e-02    11.5968    35.4546  1028.1051    27.0191    4.36387         41 0.0000e+00
      28056 164.454004      0.366    244.740    11.6087   4.019008     2.8294    243.000 4.8604e-02    11.5772    35.4504  1028.1101    27.0195    4.36522         35 0.0000e+00
      28082 164.454017      0.759    245.742    11.5831   4.016243     2.8283    244.000 4.8398e-02    11.5515    35.4472  1028.1171    27.0218    4.36599         25 0.0000e+00
      28111 164.454031      0.875    246.747    11.5593   4.013692     2.8268    245.000 4.8374e-02    11.5276    35.4443  1028.1239    27.0241    4.36574         34 0.0000e+00
      28147 164.454048      0.688    247.757    11.5473   4.012518     2.8259    246.000 4.8533e-02    11.5155    35.4438  1028.1303    27.0259    4.36557         36 0.0000e+00
      28186 164.454067      0.630    248.764    11.5406   4.011792     2.8271    247.000 4.8527e-02    11.5087    35.4426  1028.1352    27.0263    4.36915         39 0.0000e+00
      28237 164.454091      0.460    249.775    11.5354   4.011287     2.8267    248.000 4.8223e-02    11.5034    35.4421  1028.1403    27.0269    4.36956         49 0.0000e+00
      28279 164.454112      0.558    250.785    11.5329   4.011041     2.8267    249.000 4.8489e-02    11.5007    35.4416  1028.1450    27.0270    4.37029         31 0.0000e+00
      28308 164.454126      0.805    251.783    11.5315   4.010956     2.8263    250.000 4.8496e-02    11.4993    35.4416  1028.1497    27.0273    4.37019         32 0.0000e+00
      28390 164.454165      0.287    252.803    11.5310   4.010925     2.8248    251.000 4.8325e-02    11.4986    35.4414  1028.1541    27.0272    4.36787         43 0.0000e+00
      28431 164.454185      0.640    253.806    11.5279   4.010566     2.8237    252.000 4.8230e-02    11.4954    35.4404  1028.1585    27.0271    4.36644         24 0.0000e+00
      28460 164.454199      0.856    254.808    11.5196   4.009709     2.8228    253.000 4.8285e-02    11.4869    35.4394  1028.1638    27.0279    4.36603         33 0.0000e+00
      28494 164.454216      0.717    255.824    11.5112   4.008848     2.8215    254.000 4.8330e-02    11.4785    35.4385  1028.1692    27.0288    4.36459         31 0.0000e+00
      28525 164.454230      0.774    256.827    11.5086   4.008586     2.8225    255.000 4.8328e-02    11.4757    35.4379  1028.1738    27.0288    4.36761         31 0.0000e+00
      28553 164.454244      0.814    257.836    11.5073   4.008474     2.8213    256.000 4.8449e-02    11.4743    35.4377  1028.1783    27.0289    4.36575         25 0.0000e+00
      28582 164.454258      0.879    258.841    11.4913   4.006692     2.8199    257.000 4.8410e-02    11.4582    35.4349  1028.1838    27.0298    4.36505         34 0.0000e+00
      28621 164.454277      0.621    259.852    11.4824   4.005830     2.8202    258.000 4.8255e-02    11.4492    35.4345  1028.1896    27.0311    4.36705         38 0.0000e+00
      28656 164.454293      0.673    260.860    11.4789   4.005488     2.8189    259.000 4.8229e-02    11.4456    35.4339  1028.1944    27.0314    4.36532         32 0.0000e+00
      28684 164.454307      0.790    261.869    11.4702   4.004410     2.8157    260.000 4.8473e-02    11.4367    35.4312  1028.1984    27.0309    4.36025         23 0.0000e+00
      28707 164.454318      0.980    262.875    11.4607   4.003484     2.8156    261.000 4.8092e-02    11.4272    35.4306  1028.2043    27.0322    4.36142         26 0.0000e+00
      28733 164.454331      0.964    263.884    11.4393   4.000700     2.8142    262.000 4.8390e-02    11.4057    35.4232  1028.2071    27.0304    4.36118         24 0.0000e+00
      28757 164.454342      0.955    264.893    11.3774   3.994126     2.8111    263.000 4.8314e-02    11.3438    35.4169  1028.2186    27.0370    4.36124         21 0.0000e+00
      28777 164.454352      1.086    265.894    11.3464   3.990528     2.8083    264.000 4.8199e-02    11.3127    35.4105  1028.2240    27.0378    4.35892         21 0.0000e+00
      28799 164.454362      1.172    266.905    11.2881   3.983848     2.8045    265.000 4.8286e-02    11.2544    35.3997  1028.2312    27.0402    4.35731         22 0.0000e+00
      28837 164.454381      0.863    267.906    11.2248   3.977243     2.8012    266.000 4.8310e-02    11.1911    35.3943  1028.2436    27.0477    4.35687         37 0.0000e+00
      28935 164.454428      0.257    268.928    11.1565   3.969901     2.7921    267.000 4.8301e-02    11.1228    35.3864  1028.2549    27.0541    4.34496         34 0.0000e+00
      28959 164.454439      0.764    269.933    11.1006   3.963998     2.7855    268.000 4.8418e-02    11.0669    35.3808  1028.2656    27.0600    4.33698         26 0.0000e+00
      28987 164.454453      0.883    270.931    11.0862   3.962696     2.7804    269.000 4.8400e-02    11.0523    35.3812  1028.2731    27.0630    4.32832         36 0.0000e+00
      29029 164.454473      0.568    271.953    11.0860   3.962785     2.7776    270.000 4.8424e-02    11.0521    35.3818  1028.2781    27.0635    4.32315         38 0.0000e+00
      29057 164.454487      0.735    272.958    11.0733   3.961327     2.7766    271.000 4.8228e-02    11.0393    35.3790  1028.2829    27.0637    4.32276         22 0.0000e+00
      29079 164.454497      1.004    273.963    11.0788   3.962139     2.7747    272.000 4.8398e-02    11.0446    35.3815  1028.2882    27.0646    4.31896         22 0.0000e+00
      29100 164.454507      1.122    274.971    11.0761   3.961817     2.7732    273.000 4.8653e-02    11.0418    35.3803  1028.2923    27.0642    4.31655         19 0.0000e+00
      29120 164.454517      1.176    275.972    11.0680   3.960934     2.7706    274.000 4.8187e-02    11.0336    35.3789  1028.2972    27.0646    4.31243         22 0.0000e+00
      29142 164.454528      1.149    276.983    11.0350   3.957286     2.7696    275.000 4.8174e-02    11.0005    35.3738  1028.3040    27.0666    4.31413         22 0.0000e+00
      29172 164.454542      0.931    277.987    11.0462   3.958804     2.7695    276.000 4.8199e-02    11.0116    35.3777  1028.3094    27.0677    4.31336         44 0.0000e+00
      29221 164.454566      0.403    279.009    11.0534   3.959479     2.7703    277.000 4.8319e-02    11.0186    35.3771  1028.3122    27.0659    4.31496         39 0.0000e+00
      29251 164.454580      0.685    280.012    11.0361   3.957727     2.7643    278.000 4.8450e-02    11.0013    35.3757  1028.3189    27.0680    4.30460         25 0.0000e+00
      29273 164.454591      0.976    281.017    10.9205   3.943429     2.7599    279.000 4.8414e-02    10.8858    35.3436  1028.3200    27.0640    4.30730         20 0.0000e+00
      29296 164.454602      1.096    282.017    10.8095   3.932653     2.7565    280.000 4.8217e-02    10.7749    35.3420  1028.3439    27.0828    4.31075         27 0.0000e+00
      29331 164.454619      0.776    283.036    10.7866   3.930680     2.7532    281.000 4.8429e-02    10.7519    35.3439  1028.3542    27.0884    4.30644         38 0.0000e+00
      29361 164.454633      0.694    284.054    10.7696   3.926726     2.7449    282.000 4.8034e-02    10.7348    35.3201  1028.3434    27.0729    4.29180         23 0.0000e+00
      29379 164.454642      1.008    285.055    10.4749   3.892753     2.7350    283.000 4.8151e-02    10.4405    35.2618  1028.3566    27.0797    4.29969         16 0.0000e+00
      29395 164.454650      1.308    286.056    10.3122   3.878565     2.7284    284.000 4.8142e-02    10.2781    35.2752  1028.4011    27.1187    4.30074         14 0.0000e+00
      29411 164.454658      1.495    287.048    10.2950   3.876648     2.7247    285.000 4.8133e-02    10.2608    35.2720  1028.4061    27.1192    4.29509         19 0.0000e+00
      29457 164.454680      0.738    288.072    10.3270   3.879523     2.7235    286.000 4.8213e-02    10.2926    35.2696  1028.4031    27.1119    4.29040         39 0.0000e+00
      29506 164.454703      0.454    289.094    10.2279   3.868678     2.7177    287.000 4.8197e-02    10.1936    35.2551  1028.4143    27.1178    4.28805         19 0.0000e+00
      29523 164.454712      0.985    290.093    10.1599   3.862134     2.7150    288.000 4.8299e-02    10.1257    35.2541  1028.4301    27.1288    4.28904         18 0.0000e+00
      29538 164.454719      1.330    291.089    10.1406   3.859992     2.7132    289.000 4.8231e-02    10.1063    35.2505  1028.4353    27.1294    4.28764         14 0.0000e+00
      29559 164.454729      1.386    292.088    10.1234   3.858372     2.7123    290.000 4.8247e-02    10.0890    35.2503  1028.4427    27.1322    4.28790         31 0.0000e+00
      29656 164.454776      0.367    293.118    10.1060   3.856436     2.7097    291.000 4.8369e-02    10.0715    35.2470  1028.4479    27.1326    4.28449         29 0.0000e+00
      29694 164.454794      0.642    294.118    10.0666   3.852129     2.7074    292.000 4.8256e-02    10.0321    35.2409  1028.4547    27.1347    4.28403         23 0.0000e+00
      29724 164.454809      0.838    295.121    10.0242   3.847920     2.7061    293.000 4.8246e-02     9.9897    35.2387  1028.4650    27.1402    4.28565         39 0.0000e+00
      29774 164.454833      0.475    296.137    10.0026   3.845752     2.7036    294.000 4.8286e-02     9.9680    35.2371  1028.4721    27.1427    4.28307         55 0.0000e+00
      29825 164.454858      0.465    297.147     9.9891   3.844327     2.7026    295.000 4.8278e-02     9.9544    35.2352  1028.4776    27.1436    4.28261         37 0.0000e+00
      29861 164.454875      0.649    298.149     9.9812   3.843571     2.7007    296.000 4.8327e-02     9.9464    35.2347  1028.4831    27.1445    4.28000         38 0.0000e+00
      29901 164.454894      0.616    299.159     9.9717   3.842625     2.6996    297.000 4.8191e-02     9.9368    35.2338  1028.4886    27.1455    4.27915         45 0.0000e+00
      29946 164.454916      0.529    300.169     9.9630   3.841694     2.6988    298.000 4.8216e-02     9.9279    35.2324  1028.4936    27.1459    4.27875         43 0.0000e+00
      29989 164.454936      0.565    301.177     9.9469   3.840024     2.6983    299.000 4.8318e-02     9.9118    35.2304  1028.4995    27.1471    4.27984         42 0.0000e+00
      30028 164.454955      0.615    302.187     9.9344   3.838691     2.6960    300.000 4.8353e-02     9.8992    35.2285  1028.5047    27.1477    4.27671         35 0.0000e+00
      30066 164.454973      0.644    303.189     9.9218   3.837416     2.6949    301.000 4.8330e-02     9.8866    35.2272  1028.5104    27.1489    4.27610         43 0.0000e+00
      30109 164.454994      0.544    304.205     9.9117   3.836342     2.6954    302.000 4.8086e-02     9.8763    35.2256  1028.5156    27.1494    4.27861         36 0.0000e+00
      30139 164.455009      0.727    305.213     9.8976   3.834789     2.6950    303.000 4.8408e-02     9.8622    35.2230  1028.5205    27.1497    4.27967         25 0.0000e+00
      30162 164.455020      0.946    306.213     9.8747   3.832403     2.6946    304.000 4.8028e-02     9.8391    35.2204  1028.5271    27.1517    4.28165         24 0.0000e+00
      30191 164.455034      0.928    307.221     9.8695   3.831965     2.6931    305.000 4.8329e-02     9.8339    35.2205  1028.5326    27.1526    4.27942         34 0.0000e+00
      30229 164.455052      0.649    308.232     9.8647   3.831506     2.6926    306.000 4.8383e-02     9.8289    35.2200  1028.5376    27.1531    4.27934         40 0.0000e+00
      30265 164.455070      0.636    309.246     9.8581   3.830808     2.6915    307.000 4.8464e-02     9.8222    35.2188  1028.5424    27.1533    4.27831         29 0.0000e+00
      30291 164.455082      0.837    310.249     9.8540   3.830425     2.6900    308.000 4.8433e-02     9.8181    35.2184  1028.5473    27.1537    4.27604         24 0.0000e+00
      30314 164.455093      1.013    311.255     9.8496   3.830010     2.6896    309.000 4.8153e-02     9.8135    35.2180  1028.5523    27.1541    4.27618         23 0.0000e+00
      30346 164.455109      0.855    312.258     9.8451   3.829583     2.6894    310.000 4.8210e-02     9.8089    35.2176  1028.5573    27.1546    4.27681         47 0.0000e+00
      30404 164.455137      0.317    313.279     9.8383   3.828855     2.6910    311.000 4.8396e-02     9.8020    35.2162  1028.5620    27.1547    4.28137         45 0.0000e+00
      30434 164.455151      0.652    314.286     9.8133   3.826061     2.6897    312.000 4.8252e-02     9.7769    35.2115  1028.5673    27.1553    4.28159         23 0.0000e+00
      30456 164.455161      1.011    315.287     9.7916   3.823840     2.6877    313.000 4.7947e-02     9.7551    35.2094  1028.5740    27.1573    4.27982         22 0.0000e+00
      30483 164.455174      1.000    316.286     9.7737   3.822007     2.6858    314.000 4.8312e-02     9.7372    35.2076  1028.5802    27.1590    4.27800         37 0.0000e+00
      30543 164.455203      0.363    317.313     9.7653   3.821203     2.6852    315.000 4.7979e-02     9.7287    35.2070  1028.5858    27.1599    4.27817         32 0.0000e+00
      30578 164.455220      0.639    318.316     9.7510   3.819576     2.6840    316.000 4.8314e-02     9.7143    35.2038  1028.5903    27.1598    4.27760         28 0.0000e+00
      30604 164.455233      0.874    319.320     9.7375   3.818157     2.6836    317.000 4.8112e-02     9.7007    35.2020  1028.5958    27.1607    4.27853         25 0.0000e+00
      30631 164.455246      0.932    320.328     9.7206   3.816440     2.6829    318.000 4.8161e-02     9.6838    35.2003  1028.6019    27.1623    4.27930         27 0.0000e+00
      30658 164.455259      0.890    321.337     9.7046   3.814715     2.6820    319.000 4.8344e-02     9.6676    35.1978  1028.6073    27.1630    4.27930         27 0.0000e+00
      30687 164.455273      0.864    322.342     9.6949   3.813810     2.6828    320.000 4.8031e-02     9.6578    35.1974  1028.6133    27.1644    4.28250         30 0.0000e+00
      30723 164.455290      0.700    323.353     9.6891   3.813205     2.6824    321.000 4.8172e-02     9.6519    35.1964  1028.6180    27.1646    4.28282         40 0.0000e+00
      30762 164.455309      0.613    324.362     9.6814   3.812455     2.6816    322.000 4.7938e-02     9.6442    35.1957  1028.6234    27.1653    4.28246         34 0.0000e+00
      30798 164.455327      0.669    325.367     9.6811   3.812476     2.6807    323.000 4.8228e-02     9.6438    35.1957  1028.6280    27.1654    4.28112         38 0.0000e+00
      30835 164.455344      0.654    326.378     9.6585   3.809973     2.6791    324.000 4.7916e-02     9.6211    35.1915  1028.6332    27.1660    4.28038         33 0.0000e+00
      30868 164.455360      0.720    327.386     9.6372   3.807801     2.6778    325.000 4.7835e-02     9.5997    35.1895  1028.6399    27.1680    4.28013         34 0.0000e+00
      30904 164.455378      0.678    328.396     9.6261   3.806628     2.6763    326.000 4.8262e-02     9.5886    35.1878  1028.6450    27.1685    4.27868         35 0.0000e+00
      30935 164.455393      0.725    329.407     9.6050   3.804398     2.6728    327.000 4.8456e-02     9.5674    35.1850  1028.6511    27.1698    4.27357         25 0.0000e+00
      30957 164.455403      0.945    330.412     9.5894   3.802739     2.6720    328.000 4.8138e-02     9.5517    35.1826  1028.6564    27.1706    4.27402         21 0.0000e+00
      30980 164.455414      1.095    331.411     9.5821   3.802118     2.6714    329.000 4.8156e-02     9.5443    35.1830  1028.6625    27.1721    4.27396         25 0.0000e+00
      31017 164.455432      0.733    332.425     9.5541   3.799024     2.6703    330.000 4.8167e-02     9.5163    35.1778  1028.6679    27.1728    4.27485         49 0.0000e+00
      31058 164.455452      0.552    333.440     9.5171   3.795194     2.6700    331.000 4.8023e-02     9.4792    35.1740  1028.6759    27.1760    4.27815         30 0.0000e+00
      31085 164.455465      0.811    334.443     9.5006   3.793380     2.6698    332.000 4.8108e-02     9.4627    35.1709  1028.6809    27.1763    4.27990         25 0.0000e+00
      31114 164.455479      0.876    335.445     9.4855   3.791935     2.6696    333.000 4.8052e-02     9.4475    35.1703  1028.6876    27.1784    4.28158         34 0.0000e+00
      31163 164.455503      0.493    336.460     9.4734   3.790726     2.6685    334.000 4.8181e-02     9.4353    35.1692  1028.6933    27.1795    4.28074         59 0.0000e+00
      31208 164.455524      0.514    337.474     9.4520   3.788306     2.6663    335.000 4.8018e-02     9.4138    35.1647  1028.6981    27.1795    4.27872         27 0.0000e+00
      31233 164.455536      0.838    338.475     9.4319   3.786354     2.6647    336.000 4.8180e-02     9.3937    35.1636  1028.7052    27.1820    4.27771         24 0.0000e+00
      31257 164.455548      1.004    339.479     9.4215   3.785306     2.6631    337.000 4.8163e-02     9.3832    35.1625  1028.7107    27.1829    4.27576         27 0.0000e+00
      31292 164.455565      0.754    340.489     9.4089   3.784068     2.6614    338.000 4.8281e-02     9.3705    35.1616  1028.7167    27.1843    4.27373         44 0.0000e+00
      31336 164.455586      0.515    341.505     9.3829   3.781373     2.6613    339.000 4.8112e-02     9.3444    35.1587  1028.7235    27.1863    4.27660         34 0.0000e+00
      31365 164.455600      0.762    342.507     9.3887   3.782008     2.6606    340.000 4.7998e-02     9.3501    35.1591  1028.7273    27.1857    4.27523         29 0.0000e+00
      31405 164.455619      0.649    343.512     9.3837   3.781527     2.6610    341.000 4.8017e-02     9.3450    35.1585  1028.7322    27.1861    4.27708         55 0.0000e+00
      31458 164.455645      0.413    344.529     9.3774   3.780921     2.6606    342.000 4.8301e-02     9.3386    35.1580  1028.7375    27.1867    4.27746         40 0.0000e+00
      31494 164.455662      0.657    345.530     9.3788   3.781129     2.6592    343.000 4.8152e-02     9.3399    35.1583  1028.7420    27.1868    4.27488         37 0.0000e+00
      31542 164.455685      0.505    346.541     9.3815   3.781437     2.6601    344.000 4.8241e-02     9.3425    35.1584  1028.7461    27.1864    4.27717         49 0.0000e+00
      31600 164.455713      0.387    347.557     9.3796   3.781308     2.6585    345.000 4.8093e-02     9.3404    35.1585  1028.7511    27.1868    4.27433         35 0.0000e+00
      31626 164.455726      0.748    348.558     9.3843   3.781850     2.6575    346.000 4.8162e-02     9.3450    35.1590  1028.7552    27.1864    4.27224         27 0.0000e+00
      31652 164.455738      0.925    349.565     9.3853   3.782032     2.6577    347.000 4.8293e-02     9.3459    35.1594  1028.7599    27.1866    4.27329         27 0.0000e+00
      31681 164.455753      0.862    350.572     9.3866   3.782202     2.6579    348.000 4.7903e-02     9.3471    35.1594  1028.7642    27.1864    4.27412         31 0.0000e+00
      31716 164.455769      0.744    351.579     9.3814   3.781673     2.6576    349.000 4.8027e-02     9.3418    35.1586  1028.7690    27.1866    4.27447         41 0.0000e+00
      31765 164.455793      0.470    352.596     9.3830   3.781847     2.6571    350.000 4.7945e-02     9.3433    35.1583  1028.7731    27.1862    4.27384         48 0.0000e+00
      31800 164.455810      0.619    353.607     9.3779   3.781354     2.6556    351.000 4.7952e-02     9.3381    35.1577  1028.7781    27.1866    4.27172         22 0.0000e+00
      31821 164.455820      0.941    354.607     9.3735   3.780841     2.6556    352.000 4.8631e-02     9.3335    35.1563  1028.7823    27.1863    4.27280         21 0.0000e+00
      31841 164.455829      1.149    355.609     9.3483   3.778081     2.6553    353.000 4.8564e-02     9.3083    35.1519  1028.7876    27.1869    4.27512         22 0.0000e+00
      31871 164.455844      0.946    356.617     9.3403   3.777470     2.6546    354.000 4.8087e-02     9.3002    35.1529  1028.7943    27.1891    4.27476         43 0.0000e+00
      31920 164.455867      0.417    357.642     9.3326   3.776689     2.6538    355.000 4.8229e-02     9.2924    35.1520  1028.7995    27.1896    4.27433         39 0.0000e+00
      31945 164.455880      0.760    358.648     9.3253   3.775895     2.6530    356.000 4.8289e-02     9.2850    35.1504  1028.8041    27.1896    4.27402         20 0.0000e+00
      31964 164.455889      1.076    359.647     9.3151   3.774834     2.6529    357.000 4.8430e-02     9.2748    35.1489  1028.8091    27.1901    4.27535         18 0.0000e+00
      31984 164.455898      1.247    360.647     9.3025   3.773553     2.6521    358.000 4.8288e-02     9.2621    35.1475  1028.8147    27.1911    4.27536         22 0.0000e+00
      32032 164.455921      0.581    361.664     9.2947   3.772762     2.6509    359.000 4.8297e-02     9.2541    35.1465  1028.8199    27.1916    4.27407         45 0.0000e+00
      32077 164.455943      0.536    362.677     9.2896   3.772356     2.6505    360.000 4.8001e-02     9.2490    35.1467  1028.8255    27.1926    4.27414         28 0.0000e+00
      32105 164.455957      0.807    363.679     9.2886   3.772314     2.6513    361.000 4.8040e-02     9.2478    35.1468  1028.8303    27.1929    4.27671         29 0.0000e+00
      32142 164.455975      0.713    364.688     9.2812   3.771477     2.6515    362.000 4.8287e-02     9.2403    35.1449  1028.8346    27.1927    4.27838         44 0.0000e+00
      32194 164.456000      0.413    365.704     9.2449   3.767666     2.6497    363.000 4.7944e-02     9.2040    35.1404  1028.8419    27.1950    4.27845         43 0.0000e+00
      32222 164.456013      0.725    366.709     9.2166   3.764683     2.6479    364.000 4.8010e-02     9.1757    35.1368  1028.8484    27.1968    4.27772         25 0.0000e+00
      32249 164.456026      0.910    367.708     9.1960   3.762474     2.6457    365.000 4.8025e-02     9.1550    35.1335  1028.8539    27.1977    4.27552         30 0.0000e+00
      32290 164.456046      0.621    368.724     9.1446   3.757156     2.6423    366.000 4.8043e-02     9.1036    35.1282  1028.8630    27.2018    4.27362         49 0.0000e+00
      32337 164.456069      0.526    369.731     9.0346   3.745725     2.6381    367.000 4.8176e-02     8.9939    35.1165  1028.8771    27.2104    4.27533         50 0.0000e+00
      32394 164.456096      0.402    370.744     8.9844   3.740428     2.6365    368.000 4.8220e-02     8.9437    35.1100  1028.8851    27.2135    4.27712         51 0.0000e+00
      32429 164.456113      0.596    371.755     8.9875   3.740752     2.6365    369.000 4.8085e-02     8.9467    35.1099  1028.8890    27.2129    4.27752         26 0.0000e+00
      32452 164.456124      0.952    372.758     8.9867   3.740711     2.6362    370.000 4.7983e-02     8.9457    35.1098  1028.8936    27.2130    4.27743         20 0.0000e+00
      32474 164.456135      1.072    373.760     8.9860   3.740679     2.6361    371.000 4.7873e-02     8.9449    35.1097  1028.8982    27.2130    4.27798         24 0.0000e+00
      32503 164.456148      0.964    374.768     8.9841   3.740547     2.6360    372.000 4.7953e-02     8.9429    35.1097  1028.9031    27.2133    4.27845         36 0.0000e+00
      32545 164.456169      0.587    375.783     8.9802   3.740188     2.6358    373.000 4.8272e-02     8.9389    35.1093  1028.9080    27.2137    4.27900         46 0.0000e+00
      32586 164.456189      0.576    376.790     8.9674   3.738901     2.6349    374.000 4.8229e-02     8.9260    35.1080  1028.9137    27.2147    4.27888         32 0.0000e+00
      32627 164.456208      0.609    377.794     8.9640   3.738623     2.6339    375.000 4.8164e-02     8.9225    35.1080  1028.9187    27.2152    4.27743         47 0.0000e+00
      32684 164.456236      0.407    378.809     8.9652   3.738800     2.6350    376.000 4.8033e-02     8.9237    35.1081  1028.9232    27.2152    4.28048         41 0.0000e+00
      32719 164.456253      0.653    379.820     8.9634   3.738647     2.6351    377.000 4.7964e-02     8.9218    35.1078  1028.9278    27.2152    4.28131         28 0.0000e+00
      32747 164.456266      0.828    380.822     8.9605   3.738405     2.6346    378.000 4.7948e-02     8.9187    35.1077  1028.9328    27.2156    4.28106         26 0.0000e+00
      32773 164.456279      0.903    381.832     8.9612   3.738517     2.6339    379.000 4.7994e-02     8.9193    35.1077  1028.9372    27.2155    4.28007         26 0.0000e+00
      32800 164.456292      0.919    382.838     8.9663   3.739136     2.6327    380.000 4.8096e-02     8.9243    35.1087  1028.9416    27.2155    4.27741         28 0.0000e+00
      32837 164.456310      0.717    383.846     8.9660   3.739117     2.6328    381.000 4.7933e-02     8.9239    35.1083  1028.9459    27.2153    4.27828         48 0.0000e+00
      32888 164.456334      0.435    384.864     8.9256   3.734746     2.6309    382.000 4.8208e-02     8.8835    35.1018  1028.9522    27.2167    4.27866         43 0.0000e+00
      32918 164.456349      0.678    385.876     8.8925   3.731086     2.6286    383.000 4.8173e-02     8.8503    35.0957  1028.9576    27.2171    4.27733         22 0.0000e+00
      32937 164.456358      0.997    386.878     8.8522   3.727204     2.6284    384.000 4.7938e-02     8.8100    35.0942  1028.9677    27.2224    4.28134         19 0.0000e+00
      32954 164.456366      1.257    387.879     8.8467   3.726722     2.6276    385.000 4.8185e-02     8.8045    35.0941  1028.9730    27.2232    4.28052         17 0.0000e+00
      32981 164.456379      1.164    388.880     8.8435   3.726435     2.6246    386.000 4.6669e-02     8.8011    35.0938  1028.9779    27.2235    4.27480         35 0.0000e+00
      33058 164.456417      0.145    389.914     8.8510   3.727500     2.5788    387.000 4.1994e-02     8.8085    35.0970  1028.9838    27.2248    4.17276         32 0.0000e+00
      33079 164.456426      0.774    390.916     8.8197   3.724060     2.5971    388.000 4.8634e-02     8.7772    35.0913  1028.9891    27.2253    4.21720         18 0.0000e+00
      33096 164.456435      1.150    391.914     8.8153   3.723543     2.6056    389.000 4.7800e-02     8.7727    35.0898  1028.9931    27.2249    4.23698         18 0.0000e+00
      33118 164.456445      1.239    392.908     8.8122   3.723415     2.6115    390.000 4.7907e-02     8.7695    35.0910  1028.9991    27.2264    4.25107         29 0.0000e+00
      33206 164.456488      0.180    393.946     8.8150   3.724465     2.5138    391.000 3.5693e-02     8.7722    35.0988  1029.0094    27.2320    4.03357         30 0.0000e+00
      33232 164.456500      0.713    394.946     8.8070   3.722691     2.5404    392.000 4.8569e-02     8.7641    35.0876  1029.0065    27.2246    4.09448         20 0.0000e+00
      33254 164.456511      1.072    395.943     8.7759   3.719656     2.5667    393.000 4.8137e-02     8.7330    35.0859  1029.0148    27.2281    4.15645         26 0.0000e+00
      33294 164.456530      0.689    396.956     8.7229   3.714028     2.5876    394.000 4.0126e-02     8.6800    35.0786  1029.0225    27.2308    4.20860         51 0.0000e+00
      33339 164.456552      0.503    397.972     8.7246   3.713895     2.5796    395.000 4.0183e-02     8.6816    35.0750  1029.0240    27.2277    4.19136         32 0.0000e+00
      33371 164.456567      0.745    398.973     8.7007   3.711952     2.5949    396.000 4.7833e-02     8.6577    35.0777  1029.0346    27.2336    4.22799         36 0.0000e+00
      33433 164.456597      0.372    399.986     8.6990   3.713130     2.5412    397.000 2.9224e-02     8.6558    35.0913  1029.0501    27.2446    4.10859         33 0.0000e+00
      33480 164.456620      0.559    400.994     8.6705   3.708679     2.5426    398.000 5.2616e-02     8.6273    35.0721  1029.0444    27.2340    4.11532         33 0.0000e+00
      33521 164.456640      0.613    401.997     8.6605   3.707943     2.5518    399.000 3.8489e-02     8.6173    35.0737  1029.0518    27.2369    4.13722         33 0.0000e+00
      33589 164.456673      0.367    403.011     8.6574   3.708258     2.4958    400.000 3.8316e-02     8.6140    35.0797  1029.0616    27.2420    4.01270         40 0.0000e+00
      33621 164.456688      0.685    404.018     8.6473   3.706576     2.5460    401.000 4.7747e-02     8.6039    35.0714  1029.0613    27.2371    4.12670         27 0.0000e+00
      33648 164.456701      0.867    405.022     8.6454   3.706304     2.5724    402.000 4.7792e-02     8.6019    35.0700  1029.0650    27.2363    4.18655         28 0.0000e+00
      33699 164.456725      0.509    406.032     8.6026   3.704512     2.5312    403.000 2.7335e-02     8.5591    35.0929  1029.0946    27.2610    4.09813         55 0.0000e+00
      33771 164.456760      0.285    407.063     8.5896   3.705225     2.4281    404.000 3.3869e-02     8.5460    35.1128  1029.1170    27.2787    3.86839         30 0.0000e+00
      33790 164.456770      0.731    408.057     8.5907   3.700652     2.4872    405.000 4.7359e-02     8.5470    35.0630  1029.0823    27.2394    4.00246         22 0.0000e+00
      33809 164.456778      1.136    409.060     8.5619   3.697772     2.5212    406.000 4.7970e-02     8.5182    35.0606  1029.0898    27.2421    4.08175         16 0.0000e+00
      33826 164.456787      1.332    410.061     8.5390   3.695216     2.5463    407.000 4.7630e-02     8.4953    35.0557  1029.0942    27.2418    4.14099         18 0.0000e+00
      33858 164.456802      0.980    411.067     8.5184   3.691919     2.5551    408.000 3.7378e-02     8.4746    35.0408  1029.0905    27.2333    4.16346         40 0.0000e+00
      33922 164.456833      0.296    412.089     8.5155   3.692546     2.4936    409.000 2.8859e-02     8.4716    35.0499  1029.1027    27.2409    4.02591         44 0.0000e+00
      33959 164.456851      0.617    413.097     8.4050   3.681903     2.5315    410.000 4.8123e-02     8.3613    35.0461  1029.1224    27.2551    4.12174         35 0.0000e+00
      33989 164.456865      0.759    414.110     8.3883   3.680127     2.5660    411.000 4.7807e-02     8.3446    35.0433  1029.1275    27.2554    4.20153         26 0.0000e+00
      34013 164.456877      0.914    415.102     8.3907   3.680445     2.5804    412.000 4.7627e-02     8.3468    35.0439  1029.1321    27.2555    4.23432         26 0.0000e+00
      34090 164.456914      0.325    416.127     8.3822   3.681473     2.4923    413.000 2.1008e-02     8.3382    35.0627  1029.1528    27.2717    4.03666         42 0.0000e+00
      34136 164.456936      0.576    417.137     8.1817   3.657226     2.4862    414.000 5.5658e-02     8.1383    35.0034  1029.1435    27.2557    4.04285         22 0.0000e+00
      34154 164.456945      1.006    418.133     8.1757   3.658498     2.6145    415.000 4.7651e-02     8.1322    35.0225  1029.1639    27.2716    4.33391         18 0.0000e+00
      34171 164.456953      1.325    419.044     8.1294   3.653886     2.4978    416.000 4.7954e-02     8.0859    35.0189  1029.1725    27.2757    4.07455          5 0.0000e+00
 -9.990e-29 -9.990e-29 -9.990e-29 -9.990e-29 -9.990e-29 -9.990e-29 -9.990e-29    417.000 -9.990e-29 -9.990e-29 -9.990e-29 -9.990e-29 -9.990e-29 -9.990e-29          0 -9.990e-29
 -9.990e-29 -9.990e-29 -9.990e-29 -9.990e-29 -9.990e-29 -9.990e-29 -9.990e-29    418.000 -9.990e-29 -9.990e-29 -9.990e-29 -9.990e-29 -9.990e-29 -9.990e-29          0 -9.990e-29
      34322 164.457026    450.184    421.949     8.1311   3.654251     2.5129    419.000 3.6343e-02     8.0873    35.0197  1029.1861    27.2762    4.11012         34 0.0000e+00
      34382 164.457055   -173.362    423.301     8.1345   3.657251     2.4181    420.000 1.6712e-02     8.0906    35.0477  1029.2136    27.2977    3.89460         18 0.0000e+00
 -9.990e-29 -9.990e-29 -9.990e-29 -9.990e-29 -9.990e-29 -9.990e-29 -9.990e-29    421.000 -9.990e-29 -9.990e-29 -9.990e-29 -9.990e-29 -9.990e-29 -9.990e-29          0 -9.990e-29
      34472 164.457098    374.717    425.174     8.1467   3.658574     2.3176    422.000 2.2627e-02     8.1026    35.0487  1029.2209    27.2967    3.66643         32 0.0000e+00
      34513 164.457118      9.297    426.203     8.1373   3.659438     2.2665    423.000 2.2743e-02     8.0931    35.0669  1029.2412    27.3124    3.55127         35 0.0000e+00
      34548 164.457135      0.685    427.216     8.1340   3.659526     2.2288    424.000 2.2949e-02     8.0896    35.0707  1029.2493    27.3159    3.46647         35 0.0000e+00
      34584 164.457152      0.680    428.225     8.1571   3.659595     2.1980    425.000 2.2989e-02     8.1126    35.0478  1029.2323    27.2945    3.39572         35 0.0000e+00
      34618 164.457169      0.705    429.240     8.1201   3.660735     2.1732    426.000 2.3123e-02     8.0755    35.0965  1029.2809    27.3383    3.34161         31 0.0000e+00
      34657 164.457188      0.602    430.232     8.1458   3.659935     2.1499    427.000 2.3059e-02     8.1011    35.0618  1029.2541    27.3072    3.28807         42 0.0000e+00
      34717 164.457217      0.377    431.255     8.1300   3.660176     2.1244    428.000 2.3081e-02     8.0852    35.0796  1029.2753    27.3236    3.23131         41 0.0000e+00
      34756 164.457235      0.631    432.254     8.1208   3.660060     2.1130    429.000 2.3108e-02     8.0760    35.0871  1029.2871    27.3308    3.20621         40 0.0000e+00
      34821 164.457266      0.317    433.278     8.1731   3.659630     2.0881    430.000 2.3049e-02     8.1280    35.0299  1029.2385    27.2780    3.14776         42 0.0000e+00
      34847 164.457279      0.725    434.281     8.1186   3.660338     2.1370    431.000 2.3203e-02     8.0735    35.0913  1029.2999    27.3345    3.26175         20 0.0000e+00
      34869 164.457290      1.011    435.275     8.1114   3.653166     2.2585    432.000 5.4264e-02     8.0663    35.0214  1029.2508    27.2807    3.54049         23 0.0000e+00
      34904 164.457307      0.849    436.284     8.1108   3.653254     2.3597    433.000 2.7787e-02     8.0656    35.0224  1029.2563    27.2816    3.77134         35 0.0000e+00
      34987 164.457347      0.113    437.299     8.1036   3.654989     2.3388    434.000 2.0907e-02     8.0582    35.0477  1029.2818    27.3026    3.72421         33 0.0000e+00
 -9.990e-29 -9.990e-29 -9.990e-29 -9.990e-29 -9.990e-29 -9.990e-29 -9.990e-29    435.000 -9.990e-29 -9.990e-29 -9.990e-29 -9.990e-29 -9.990e-29 -9.990e-29          0 -9.990e-29
      35065 164.457384    824.343    439.232     8.0912   3.656963     2.2245    436.000 2.2850e-02     8.0456    35.0802  1029.3180    27.3301    3.46529         21 0.0000e+00
      35102 164.457402     10.871    440.328     8.0874   3.656587     2.1846    437.000 2.2955e-02     8.0418    35.0795  1029.3230    27.3300    3.37532         50 0.0000e+00
      35143 164.457422      0.550    441.340     8.0844   3.656412     2.1508    438.000 2.2903e-02     8.0387    35.0801  1029.3286    27.3310    3.29904         33 0.0000e+00
      35174 164.457437      0.762    442.344     8.0742   3.656791     2.1385    439.000 2.2974e-02     8.0284    35.0938  1029.3454    27.3433    3.27187         27 0.0000e+00
      35213 164.457456      0.672    443.348     8.0869   3.656220     2.1261    440.000 2.3021e-02     8.0410    35.0746  1029.3329    27.3263    3.24365         40 0.0000e+00
      35309 164.457502      0.185    444.362     8.0992   3.655801     2.1711    441.000 2.3139e-02     8.0532    35.0574  1029.3220    27.3109    3.34609         34 0.0000e+00
 -9.990e-29 -9.990e-29 -9.990e-29 -9.990e-29 -9.990e-29 -9.990e-29 -9.990e-29    442.000 -9.990e-29 -9.990e-29 -9.990e-29 -9.990e-29 -9.990e-29 -9.990e-29          0 -9.990e-29
 -9.990e-29 -9.990e-29 -9.990e-29 -9.990e-29 -9.990e-29 -9.990e-29 -9.990e-29    443.000 -9.990e-29 -9.990e-29 -9.990e-29 -9.990e-29 -9.990e-29 -9.990e-29          0 -9.990e-29
      35383 164.457538    159.716    445.742     8.0807   3.650659     2.2716    444.000 4.7863e-02     8.0346    35.0201  1029.3021    27.2845    3.57778          5 0.0000e+00
      35533 164.457610    125.404    447.787     8.0146   3.708451     2.2835    445.000 2.7223e-02     7.9679    35.7062  1029.8589    27.8337    3.59458         24 0.0000e+00
      35778 164.457728    -68.402    449.622     8.0231   3.646345     2.0629    446.000 2.3234e-02     7.9768    35.0284  1029.3352    27.2996    3.10908         33 0.0000e+00
