* Sea-Bird SBE 9 Data File:
* FileName = D:\ACEX\brutos\MCTV011.hex
* Software Version Seasave V 7.17
* Temperature SN = 4821
* Conductivity SN = 3367
* Number of Bytes Per Scan = 21
* Number of Voltage Words = 3
* Number of Scans Averaged by the Deck Unit = 1
* System UpLoad Time = Jun 14 2012 13:21:17
** H38 
** NHo Cruzeiro do Sul 
** 222 
** MCTV ACEx 
**   011
**   27 00.12 S
**   046  28.96W
**   14/06/2012 16:20Z
**   409
** 9P46375-0882 
**   1T Germano Filho
# nquan = 16
# nvalues = 386                         
# units = specified
# name 0 = scan: Scan Count
# name 1 = timeJ: Julian Days
# name 2 = dz/dtM: Descent Rate [m/s]
# name 3 = prDM: Pressure, Digiquartz [db]
# name 4 = t090C: Temperature [ITS-90, deg C]
# name 5 = c0S/m: Conductivity [S/m]
# name 6 = sbeox0V: Oxygen Voltage, SBE 43
# name 7 = depSM: Depth [salt water, m]
# name 8 = flSP: Fluorescence, Seapoint
# name 9 = potemp090C: Potential Temperature [ITS-90, deg C]
# name 10 = sal00: Salinity [PSU]
# name 11 = density00: Density [density, Kg/m^3]
# name 12 = sigma-é00: Density [sigma-theta, Kg/m^3]
# name 13 = sbeox0ML/L: Oxygen, SBE 43 [ml/l], WS = 2
# name 14 = nbin: number of scans per bin
# name 15 = flag: flag
# span 0 =      15338,      30558       
# span 1 = 166.563843, 166.571183       
# span 2 =     -1.294,     -0.194       
# span 3 =      1.009,    388.891       
# span 4 =    12.2965,    23.2734       
# span 5 =   4.106097,   5.427815       
# span 6 =     2.1175,     3.4838       
# span 7 =      1.000,    386.000       
# span 8 = 4.7215e-02, 4.4549e-01       
# span 9 =    12.2442,    23.2732       
# span 10 =    35.2928,    37.3191      
# span 11 =  1025.6155,  1028.7465      
# span 12 =    25.6112,    27.0220      
# span 13 =    2.89506,    4.40263      
# span 14 =         18,         69      
# span 15 = 0.0000e+00, 0.0000e+00      
# interval = meters: 1                  
# start_time = Jun 14 2012 13:21:17
# bad_flag = -9.990e-29
# sensor 0 = Frequency  0  temperature, 4821, 05-sep-07
# sensor 1 = Frequency  1  conductivity, 3367, 05-mar-08, cpcor = -9.5700e-08
# sensor 2 = Frequency  2  pressure, 106018, 28-sep-07
# sensor 3 = Extrnl Volt  0  Oxygen, SBE, primary, 0802, 30-nov-07
# sensor 4 = Extrnl Volt  2  Fluorometer, Seapoint, primary
# sensor 5 = Extrnl Volt  4  altimeter
# datcnv_date = Jun 14 2012 14:47:38, 7.17
# datcnv_in = D:\ACEX\brutos\MCTV011.hex D:\ACEX\arqconfig\AC0882mod2.con
# datcnv_skipover = 3948
# filter_date = Jun 14 2012 14:48:08, 7.17
# filter_in = D:\ACEX\dat cnv\MCTV011.cnv
# filter_low_pass_tc_A = 0.150
# filter_low_pass_tc_B = 0.000
# filter_low_pass_A_vars = prDM
# filter_low_pass_B_vars = c0S/m
# alignctd_date = Jun 14 2012 14:48:27, 7.17
# alignctd_in = D:\ACEX\filter\MCTV011.cnv
# alignctd_adv = c0S/m 0.073, sbeox0V 2.000                                                                                                                                                                                          
# wildedit_date = Jun 14 2012 14:48:48, 7.17
# wildedit_in = D:\ACEX\align\MCTV011.cnv
# wildedit_pass1_nstd = 2.0
# wildedit_pass2_nstd = 20.0
# wildedit_pass2_mindelta = 1.000e+002
# wildedit_npoint = 1000
# wildedit_vars = dz/dtM prDM t090C c0S/m sbeox0V flSP
# wildedit_excl_bad_scans = yes
# celltm_date = Jun 14 2012 14:49:07, 7.17
# celltm_in = D:\ACEX\wildedit\MCTV011.cnv
# celltm_alpha = 0.0300, 0.0000
# celltm_tau = 7.0000, 0.0000
# celltm_temp_sensor_use_for_cond = primary, 
# loopedit_date = Jun 14 2012 14:49:29, 7.17
# loopedit_in = D:\ACEX\celltm\MCTV011.cnv
# loopedit_minVelocity = 0.250                                                                                            
# loopedit_surfaceSoak: minDepth = 5.0, maxDepth = 20, useDeckPress = 1                                                   
# loopedit_excl_bad_scans = yes
# Derive_date = Jun 14 2012 14:50:33, 7.17
# Derive_in = D:\ACEX\loopedit\MCTV011.cnv D:\ACEX\arqconfig\AC0882.con
# derive_time_window_docdt = seconds: 2
# binavg_date = Jun 14 2012 14:50:53, 7.17
# binavg_in = D:\ACEX\derive\MCTV011.cnv
# binavg_bintype = meters
# binavg_binsize = 1
# binavg_excl_bad_scans = yes
# binavg_skipover = 0
# binavg_surface_bin = no, min = 0.000, max = 0.000, value = 0.000
# split_date = Jun 14 2012 14:51:28, 7.17
# split_in = D:\ACEX\binavg\MCTV011.cnv
# split_excl_bad_scans = yes
# file_type = ascii
*END*
      15338 166.563843     -0.379    388.891    12.2965   4.109585     2.1175    386.000 5.1021e-02    12.2442    35.6180  1028.7465    27.0220    2.91726         47 0.0000e+00
      15415 166.563880     -0.346    387.884    12.2977   4.108829     2.2044    385.000 5.0496e-02    12.2455    35.6100  1028.7356    27.0155    3.09595         54 0.0000e+00
      15499 166.563921     -0.483    386.876    12.3009   4.106619     2.2600    384.000 5.1300e-02    12.2489    35.5859  1028.7118    26.9962    3.21029         36 0.0000e+00
      15545 166.563943     -0.536    385.869    12.3030   4.108537     2.3041    383.000 5.1244e-02    12.2512    35.6030  1028.7201    27.0090    3.30021         58 0.0000e+00
      15611 166.563975     -0.346    384.856    12.3139   4.108799     2.2833    382.000 5.0241e-02    12.2621    35.5956  1028.7077    27.0011    3.25628         59 0.0000e+00
      15657 166.563997     -0.523    383.845    12.3547   4.106097     2.2918    381.000 5.0313e-02    12.3030    35.5313  1028.6452    26.9432    3.27203         34 0.0000e+00
      15685 166.564011     -0.769    382.840    12.3652   4.106449     2.3274    380.000 5.0323e-02    12.3136    35.5252  1028.6339    26.9364    3.34417         28 0.0000e+00
      15712 166.564024     -0.875    381.836    12.3757   4.107081     2.3445    379.000 5.0155e-02    12.3242    35.5218  1028.6247    26.9317    3.37834         27 0.0000e+00
      15749 166.564041     -0.714    380.828    12.3697   4.107518     2.3237    378.000 5.0398e-02    12.3184    35.5321  1028.6294    26.9408    3.33526         49 0.0000e+00
      15807 166.564069     -0.380    379.814    12.3891   4.107835     2.2949    377.000 5.0217e-02    12.3378    35.5174  1028.6096    26.9256    3.27458         52 0.0000e+00
      15845 166.564088     -0.601    378.805    12.5064   4.111579     2.3222    376.000 4.9712e-02    12.4550    35.4433  1028.5239    26.8451    3.32380         28 0.0000e+00
      15873 166.564101     -0.841    377.798    12.5650   4.116398     2.3714    375.000 4.9972e-02    12.5136    35.4351  1028.5012    26.8272    3.42035         26 0.0000e+00
      15900 166.564114     -0.902    376.792    12.5920   4.113913     2.3905    374.000 4.9457e-02    12.5407    35.3862  1028.4534    26.7839    3.45819         25 0.0000e+00
      15926 166.564127     -0.900    375.785    12.6274   4.114610     2.3811    373.000 4.8971e-02    12.5762    35.3602  1028.4216    26.7567    3.43670         28 0.0000e+00
      15954 166.564140     -0.904    374.774    12.6486   4.114742     2.3562    372.000 4.9217e-02    12.5974    35.3421  1028.3987    26.7384    3.38422         26 0.0000e+00
      15981 166.564153     -0.878    373.769    12.6707   4.114846     2.3230    371.000 4.8269e-02    12.6197    35.3228  1028.3748    26.7191    3.31461         29 0.0000e+00
      16012 166.564168     -0.821    372.759    12.6811   4.114247     2.2815    370.000 4.8999e-02    12.6302    35.3078  1028.3565    26.7053    3.22905         31 0.0000e+00
      16050 166.564186     -0.665    371.752    12.6803   4.112571     2.2300    369.000 4.9167e-02    12.6296    35.2928  1028.3407    26.6939    3.12373         41 0.0000e+00
      16092 166.564207     -0.562    370.740    12.7046   4.117751     2.2155    368.000 5.7290e-02    12.6539    35.3202  1028.3524    26.7103    3.09148         40 0.0000e+00
      16128 166.564224     -0.658    369.735    12.7243   4.128470     2.2727    367.000 4.8362e-02    12.6736    35.4051  1028.4095    26.7722    3.20500         31 0.0000e+00
      16159 166.564239     -0.758    368.721    12.7276   4.132387     2.3285    366.000 4.7857e-02    12.6771    35.4400  1028.4313    26.7986    3.31752         29 0.0000e+00
      16186 166.564252     -0.858    367.718    12.7302   4.131959     2.3388    365.000 4.8141e-02    12.6798    35.4339  1028.4216    26.7934    3.33799         28 0.0000e+00
      16220 166.564269     -0.767    366.711    12.7188   4.124478     2.3131    364.000 4.8030e-02    12.6686    35.3732  1028.3726    26.7485    3.28700         42 0.0000e+00
      16271 166.564293     -0.457    365.698    12.6843   4.119518     2.2719    363.000 4.8464e-02    12.6343    35.3584  1028.3637    26.7438    3.20509         54 0.0000e+00
      16316 166.564315     -0.541    364.690    12.7638   4.128797     2.2848    362.000 4.8352e-02    12.7137    35.3734  1028.3545    26.7396    3.22550         35 0.0000e+00
      16349 166.564331     -0.700    363.683    12.7786   4.137433     2.3181    361.000 4.9911e-02    12.7286    35.4427  1028.4006    26.7905    3.29056         33 0.0000e+00
      16381 166.564346     -0.757    362.675    12.7970   4.139496     2.3427    360.000 4.8317e-02    12.7471    35.4457  1028.3946    26.7891    3.33881         31 0.0000e+00
      16418 166.564364     -0.676    361.667    12.8102   4.133812     2.3276    359.000 4.8898e-02    12.7605    35.3793  1028.3361    26.7349    3.30807         42 0.0000e+00
      16460 166.564384     -0.574    360.656    12.8096   4.132305     2.2870    358.000 4.8250e-02    12.7600    35.3659  1028.3214    26.7246    3.22544         38 0.0000e+00
      16496 166.564402     -0.653    359.648    12.8444   4.139280     2.2666    357.000 4.8265e-02    12.7948    35.4005  1028.3365    26.7445    3.18047         34 0.0000e+00
      16529 166.564417     -0.733    358.643    12.8498   4.143079     2.2614    356.000 4.8195e-02    12.8004    35.4322  1028.3554    26.7680    3.16865         34 0.0000e+00
      16568 166.564436     -0.645    357.634    12.8542   4.137888     2.2404    355.000 4.8365e-02    12.8049    35.3789  1028.3088    26.7257    3.12633         44 0.0000e+00
      16614 166.564459     -0.508    356.622    12.8518   4.136582     2.2072    354.000 4.8177e-02    12.8027    35.3691  1028.2972    26.7186    3.05865         43 0.0000e+00
      16653 166.564477     -0.618    355.618    12.8621   4.141300     2.1947    353.000 4.8008e-02    12.8131    35.4050  1028.3184    26.7444    3.03163         38 0.0000e+00
      16693 166.564497     -0.608    354.608    12.8767   4.141982     2.1762    352.000 4.8944e-02    12.8277    35.3983  1028.3058    26.7363    2.99287         40 0.0000e+00
      16733 166.564516     -0.593    353.598    12.9123   4.148511     2.1942    351.000 4.8464e-02    12.8635    35.4278  1028.3167    26.7519    3.02624         34 0.0000e+00
      16762 166.564530     -0.740    352.583    12.9655   4.155281     2.2422    350.000 4.8367e-02    12.9166    35.4433  1028.3131    26.7532    3.11948         26 0.0000e+00
      16784 166.564540     -0.979    351.586    12.9876   4.159386     2.2943    349.000 4.8517e-02    12.9388    35.4621  1028.3187    26.7634    3.22287         19 0.0000e+00
      16807 166.564552     -1.095    350.580    12.9934   4.154348     2.3245    348.000 4.8341e-02    12.9448    35.4091  1028.2720    26.7211    3.28411         27 0.0000e+00
      16844 166.564570     -0.735    349.575    12.9765   4.146860     2.3260    347.000 4.8566e-02    12.9281    35.3539  1028.2284    26.6817    3.28892         44 0.0000e+00
      16914 166.564603     -0.284    348.553    12.9734   4.148703     2.3054    346.000 4.7905e-02    12.9250    35.3748  1028.2407    26.6985    3.24665         42 0.0000e+00
      16944 166.564617     -0.694    347.548    13.0097   4.165197     2.3562    345.000 4.7833e-02    12.9614    35.4986  1028.3244    26.7871    3.34393         28 0.0000e+00
      16970 166.564630     -0.894    346.543    13.0095   4.168470     2.4031    344.000 4.8514e-02    12.9613    35.5304  1028.3446    26.8118    3.43775         26 0.0000e+00
      16996 166.564643     -0.912    345.534    13.0120   4.168575     2.4131    343.000 4.8432e-02    12.9640    35.5295  1028.3389    26.8106    3.45725         27 0.0000e+00
      17025 166.564657     -0.871    344.525    13.0137   4.161086     2.3957    342.000 4.8242e-02    12.9658    35.4570  1028.2780    26.7540    3.42305         29 0.0000e+00
      17056 166.564671     -0.795    343.519    13.0276   4.166142     2.3723    341.000 4.8306e-02    12.9798    35.4926  1028.2981    26.7787    3.37356         32 0.0000e+00
      17088 166.564687     -0.773    342.509    13.0517   4.168584     2.3477    340.000 4.9305e-02    13.0040    35.4937  1028.2895    26.7748    3.32177         32 0.0000e+00
      17120 166.564703     -0.733    341.501    13.0662   4.171762     2.3404    339.000 4.8233e-02    13.0186    35.5109  1028.2953    26.7851    3.30531         31 0.0000e+00
      17148 166.564716     -0.809    340.488    13.0824   4.175492     2.3661    338.000 4.8943e-02    13.0349    35.5317  1028.3035    26.7979    3.35521         25 0.0000e+00
      17170 166.564727     -0.986    339.482    13.1005   4.178201     2.3993    337.000 4.8118e-02    13.0530    35.5411  1028.3025    26.8015    3.42016         20 0.0000e+00
      17191 166.564737     -1.126    338.483    13.1090   4.177052     2.4179    336.000 4.8046e-02    13.0617    35.5225  1028.2820    26.7854    3.45700         23 0.0000e+00
      17221 166.564751     -0.954    337.475    13.0986   4.167178     2.4170    335.000 4.7678e-02    13.0516    35.4387  1028.2149    26.7225    3.45730         39 0.0000e+00
      17279 166.564779     -0.385    336.459    13.0543   4.162005     2.3799    334.000 4.7215e-02    13.0075    35.4312  1028.2138    26.7256    3.38521         69 0.0000e+00
      17331 166.564804     -0.470    335.444    13.1515   4.174762     2.3883    333.000 4.8110e-02    13.1046    35.4624  1028.2132    26.7301    3.39441         35 0.0000e+00
      17358 166.564817     -0.756    334.439    13.1602   4.184588     2.4438    332.000 4.8204e-02    13.1134    35.5481  1028.2731    26.7947    3.50308         23 0.0000e+00
      17380 166.564828     -1.001    333.435    13.1664   4.187630     2.4826    331.000 4.7730e-02    13.1196    35.5717  1028.2856    26.8117    3.57966         22 0.0000e+00
      17403 166.564839     -1.093    332.428    13.1700   4.187094     2.4949    330.000 4.7621e-02    13.1234    35.5636  1028.2741    26.8047    3.60382         23 0.0000e+00
      17426 166.564850     -1.079    331.422    13.1715   4.180174     2.4788    329.000 4.8561e-02    13.1251    35.4968  1028.2177    26.7526    3.57232         23 0.0000e+00
      17455 166.564864     -0.921    330.415    13.1633   4.172135     2.4453    328.000 4.8420e-02    13.1171    35.4285  1028.1622    26.7013    3.50658         32 0.0000e+00
      17487 166.564880     -0.737    329.403    13.1787   4.172991     2.4281    327.000 4.8344e-02    13.1326    35.4227  1028.1501    26.6937    3.47069         32 0.0000e+00
      17519 166.564895     -0.772    328.396    13.2171   4.180006     2.4062    326.000 4.8367e-02    13.1710    35.4540  1028.1617    26.7101    3.42281         31 0.0000e+00
      17557 166.564913     -0.660    327.387    13.2154   4.176827     2.3642    325.000 4.8593e-02    13.1694    35.4259  1028.1359    26.6886    3.33878         44 0.0000e+00
      17602 166.564935     -0.533    326.377    13.2172   4.176880     2.3237    324.000 4.7982e-02    13.1714    35.4252  1028.1305    26.6877    3.25692         41 0.0000e+00
      17636 166.564951     -0.656    325.368    13.2200   4.187420     2.3232    323.000 4.7902e-02    13.1743    35.5230  1028.2010    26.7629    3.25317         30 0.0000e+00
      17664 166.564965     -0.844    324.359    13.2204   4.192007     2.3498    322.000 4.7413e-02    13.1749    35.5666  1028.2300    26.7965    3.30527         25 0.0000e+00
      17690 166.564977     -0.914    323.356    13.2227   4.190514     2.3704    321.000 4.8070e-02    13.1773    35.5506  1028.2128    26.7837    3.34625         26 0.0000e+00
      17716 166.564990     -0.925    322.343    13.2286   4.191914     2.3774    320.000 4.7782e-02    13.1833    35.5589  1028.2135    26.7888    3.35930         23 0.0000e+00
      17739 166.565001     -0.976    321.340    13.2352   4.191252     2.3651    319.000 4.8292e-02    13.1901    35.5468  1028.1983    26.7781    3.33393         23 0.0000e+00
      17762 166.565012     -1.040    320.330    13.2564   4.191598     2.3463    318.000 4.8413e-02    13.2114    35.5308  1028.1770    26.7613    3.29483         23 0.0000e+00
      17787 166.565024     -1.021    319.323    13.2958   4.193285     2.3309    317.000 4.8449e-02    13.2508    35.5105  1028.1486    26.7376    3.26133         25 0.0000e+00
      17814 166.565037     -0.938    318.317    13.3276   4.191073     2.3039    316.000 4.7647e-02    13.2827    35.4604  1028.0987    26.6922    3.20591         31 0.0000e+00
      17855 166.565057     -0.639    317.308    13.2661   4.184810     2.2730    315.000 4.8294e-02    13.2215    35.4587  1028.1059    26.7034    3.14753         52 0.0000e+00
      17904 166.565081     -0.449    316.291    13.3722   4.193650     2.3157    314.000 4.8368e-02    13.3275    35.4441  1028.0678    26.6705    3.22600         36 0.0000e+00
      17933 166.565094     -0.750    315.288    13.4158   4.206688     2.3885    313.000 4.8699e-02    13.3711    35.5273  1028.1184    26.7259    3.36646         26 0.0000e+00
      17957 166.565106     -0.932    314.282    13.4192   4.210487     2.4360    312.000 4.7928e-02    13.3746    35.5605  1028.1389    26.7509    3.45974         25 0.0000e+00
      17984 166.565119     -0.952    313.273    13.4371   4.208544     2.4451    311.000 4.8184e-02    13.3927    35.5258  1028.1038    26.7203    3.47705         26 0.0000e+00
      18011 166.565132     -0.889    312.266    13.4520   4.206130     2.4298    310.000 4.8052e-02    13.4077    35.4896  1028.0683    26.6892    3.44568         28 0.0000e+00
      18038 166.565145     -0.889    311.258    13.4751   4.204701     2.3992    309.000 4.8532e-02    13.4309    35.4551  1028.0322    26.6577    3.38349         28 0.0000e+00
      18068 166.565159     -0.849    310.251    13.4894   4.201534     2.3578    308.000 4.9171e-02    13.4453    35.4124  1027.9918    26.6217    3.30031         30 0.0000e+00
      18101 166.565175     -0.754    309.239    13.5040   4.203682     2.3207    307.000 4.8438e-02    13.4601    35.4195  1027.9897    26.6241    3.22495         35 0.0000e+00
      18133 166.565191     -0.728    308.232    13.5310   4.212811     2.3182    306.000 4.8267e-02    13.4871    35.4810  1028.0270    26.6662    3.21655         30 0.0000e+00
      18162 166.565205     -0.811    307.223    13.5560   4.220459     2.3613    305.000 4.7870e-02    13.5121    35.5303  1028.0553    26.6992    3.29916         29 0.0000e+00
      18191 166.565219     -0.855    306.221    13.5941   4.224073     2.4050    304.000 4.7856e-02    13.5503    35.5294  1028.0421    26.6906    3.38304         31 0.0000e+00
      18231 166.565238     -0.628    305.209    13.5857   4.211321     2.4126    303.000 4.8163e-02    13.5422    35.4175  1027.9530    26.6056    3.40067         49 0.0000e+00
      18275 166.565260     -0.519    304.195    13.6665   4.217266     2.4209    302.000 4.7745e-02    13.6229    35.3991  1027.9171    26.5747    3.41157         31 0.0000e+00
      18302 166.565272     -0.776    303.188    13.7146   4.232431     2.4496    301.000 4.8623e-02    13.6710    35.4976  1027.9784    26.6408    3.46268         25 0.0000e+00
      18323 166.565283     -1.009    302.188    13.7197   4.240284     2.4800    300.000 4.7881e-02    13.6762    35.5670  1028.0264    26.6935    3.52045         21 0.0000e+00
      18346 166.565294     -1.111    301.180    13.7239   4.232117     2.4888    299.000 4.8859e-02    13.6806    35.4868  1027.9592    26.6305    3.53883         24 0.0000e+00
      18374 166.565307     -0.940    300.172    13.7154   4.220018     2.4711    298.000 4.9713e-02    13.6723    35.3815  1027.8753    26.5508    3.50629         33 0.0000e+00
      18416 166.565328     -0.593    299.161    13.7372   4.221890     2.4378    297.000 4.8579e-02    13.6942    35.3794  1027.8646    26.5446    3.43834         46 0.0000e+00
      18456 166.565347     -0.577    298.150    13.7567   4.242455     2.4415    296.000 4.8142e-02    13.7137    35.5547  1027.9912    26.6761    3.44014         32 0.0000e+00
      18484 166.565360     -0.789    297.145    13.7715   4.250570     2.4866    295.000 4.8841e-02    13.7286    35.6175  1028.0320    26.7216    3.52649         25 0.0000e+00
      18509 166.565372     -0.950    296.136    13.7839   4.249887     2.5018    294.000 4.8275e-02    13.7412    35.6000  1028.0114    26.7055    3.55550         24 0.0000e+00
      18534 166.565384     -0.987    295.131    13.8359   4.249318     2.4844    293.000 4.8135e-02    13.7932    35.5470  1027.9549    26.6536    3.51813         26 0.0000e+00
      18564 166.565399     -0.868    294.124    13.8660   4.246849     2.4421    292.000 4.7942e-02    13.8235    35.4964  1027.9049    26.6081    3.43325         34 0.0000e+00
      18602 166.565417     -0.650    293.112    13.8897   4.247589     2.4011    291.000 4.8726e-02    13.8472    35.4819  1027.8841    26.5919    3.35064         40 0.0000e+00
      18638 166.565434     -0.655    292.104    13.9193   4.259497     2.4047    290.000 4.8114e-02    13.8769    35.5663  1027.9385    26.6509    3.35358         32 0.0000e+00
      18669 166.565450     -0.748    291.096    13.9565   4.262032     2.4341    289.000 9.0800e-02    13.9141    35.5561  1027.9181    26.6351    3.40876         30 0.0000e+00
      18698 166.565464     -0.811    290.085    13.9704   4.263465     2.4366    288.000 5.0716e-02    13.9282    35.5570  1027.9113    26.6329    3.41223         26 0.0000e+00
      18722 166.565475     -0.925    289.080    13.9803   4.264207     2.4176    287.000 4.7644e-02    13.9383    35.5552  1027.9033    26.6294    3.37367         23 0.0000e+00
      18745 166.565486     -1.037    288.080    13.9808   4.254678     2.3856    286.000 4.8599e-02    13.9390    35.4662  1027.8301    26.5604    3.31226         23 0.0000e+00
      18773 166.565500     -0.951    287.069    13.9605   4.248978     2.3544    285.000 4.8964e-02    13.9188    35.4321  1027.8038    26.5383    3.25234         29 0.0000e+00
      18806 166.565516     -0.762    286.058    13.9561   4.245529     2.3302    284.000 4.8040e-02    13.9145    35.4044  1027.7789    26.5178    3.20519         38 0.0000e+00
      18844 166.565534     -0.635    285.048    13.9914   4.253352     2.3267    283.000 4.8785e-02    13.9499    35.4453  1027.7983    26.5419    3.19473         36 0.0000e+00
      18877 166.565550     -0.712    284.038    14.0104   4.270472     2.3820    282.000 4.8241e-02    13.9690    35.5879  1027.8998    26.6482    3.29894         29 0.0000e+00
      18904 166.565563     -0.844    283.030    14.0152   4.275214     2.4446    281.000 4.9209e-02    13.9740    35.6281  1027.9253    26.6783    3.42014         25 0.0000e+00
      18927 166.565574     -0.962    282.022    14.0219   4.275815     2.4636    280.000 4.8781e-02    13.9808    35.6280  1027.9192    26.6767    3.45659         23 0.0000e+00
      18950 166.565585     -1.047    281.022    14.0458   4.272330     2.4501    279.000 4.8538e-02    14.0047    35.5739  1027.8679    26.6298    3.42913         24 0.0000e+00
      18977 166.565598     -0.977    280.014    14.0593   4.264467     2.4143    278.000 4.7787e-02    14.0184    35.4885  1027.7947    26.5609    3.35930         29 0.0000e+00
      19016 166.565617     -0.658    279.000    14.0302   4.257237     2.3859    277.000 4.8305e-02    13.9895    35.4484  1027.7655    26.5360    3.30591         44 0.0000e+00
      19055 166.565636     -0.586    277.991    14.1384   4.274231     2.4174    276.000 4.8313e-02    14.0977    35.5074  1027.7832    26.5587    3.35885         30 0.0000e+00
      19084 166.565650     -0.782    276.985    14.1471   4.287504     2.4741    275.000 4.7512e-02    14.1064    35.6233  1027.8662    26.6464    3.46625         28 0.0000e+00
      19111 166.565663     -0.862    275.981    14.1531   4.288271     2.4877    274.000 4.7573e-02    14.1126    35.6253  1027.8620    26.6467    3.49190         27 0.0000e+00
      19143 166.565678     -0.822    274.973    14.1646   4.278424     2.4583    273.000 4.8774e-02    14.1242    35.5236  1027.7766    26.5656    3.43529         36 0.0000e+00
      19183 166.565697     -0.603    273.959    14.1653   4.272559     2.4077    272.000 4.8239e-02    14.1251    35.4688  1027.7297    26.5230    3.33701         37 0.0000e+00
      19217 166.565714     -0.660    272.951    14.2285   4.289880     2.4047    271.000 4.8294e-02    14.1883    35.5720  1027.7911    26.5894    3.32442         29 0.0000e+00
      19240 166.565725     -0.891    271.940    14.2423   4.298645     2.4495    270.000 4.8914e-02    14.2022    35.6411  1027.8369    26.6398    3.40917         22 0.0000e+00
      19260 166.565735     -1.092    270.941    14.2537   4.298834     2.4808    269.000 4.8577e-02    14.2138    35.6327  1027.8235    26.6309    3.46904         19 0.0000e+00
      19282 166.565745     -1.160    269.938    14.2572   4.284480     2.4858    268.000 4.9090e-02    14.2174    35.4968  1027.7135    26.5250    3.48100         24 0.0000e+00
      19310 166.565759     -0.973    268.924    14.2258   4.277699     2.4741    267.000 4.8957e-02    14.1862    35.4631  1027.6899    26.5056    3.46050         32 0.0000e+00
      19343 166.565774     -0.756    267.916    14.2501   4.276888     2.4455    266.000 4.8724e-02    14.2107    35.4337  1027.6574    26.4777    3.40327         32 0.0000e+00
      19379 166.565792     -0.683    266.908    14.2860   4.282214     2.4084    265.000 4.8868e-02    14.2467    35.4506  1027.6582    26.4830    3.32781         42 0.0000e+00
      19416 166.565810     -0.624    265.896    14.2912   4.298445     2.3975    264.000 4.8756e-02    14.2519    35.5967  1027.7652    26.5948    3.30265         30 0.0000e+00
      19446 166.565824     -0.771    264.896    14.3122   4.305095     2.4276    263.000 4.9769e-02    14.2730    35.6394  1027.7891    26.6233    3.35857         31 0.0000e+00
      19479 166.565840     -0.766    263.883    14.3221   4.305475     2.4410    262.000 4.8772e-02    14.2831    35.6342  1027.7785    26.6172    3.38364         31 0.0000e+00
      19513 166.565857     -0.712    262.877    14.3302   4.296713     2.4103    261.000 4.9193e-02    14.2913    35.5460  1027.7043    26.5472    3.32471         38 0.0000e+00
      19550 166.565874     -0.666    261.865    14.3223   4.288385     2.3747    260.000 4.9379e-02    14.2836    35.4765  1027.6480    26.4952    3.25698         34 0.0000e+00
      19580 166.565889     -0.746    260.857    14.3524   4.288880     2.3559    259.000 4.9225e-02    14.3138    35.4540  1027.6195    26.4713    3.21841         25 0.0000e+00
      19604 166.565900     -0.910    259.847    14.3676   4.294123     2.3506    258.000 4.9988e-02    14.3291    35.4890  1027.6387    26.4951    3.20596         20 0.0000e+00
      19624 166.565910     -1.085    258.847    14.3715   4.302450     2.3480    257.000 4.9596e-02    14.3332    35.5629  1027.6904    26.5513    3.19884         19 0.0000e+00
      19643 166.565919     -1.223    257.843    14.3749   4.304407     2.3420    256.000 5.0292e-02    14.3367    35.5782  1027.6971    26.5624    3.18626         20 0.0000e+00
      19666 166.565930     -1.183    256.836    14.3867   4.293513     2.3307    255.000 5.0568e-02    14.3487    35.4670  1027.6043    26.4739    3.16530         26 0.0000e+00
      19701 166.565947     -0.782    255.826    14.2865   4.285007     2.3117    254.000 5.3097e-02    14.2488    35.4806  1027.6322    26.5058    3.13393         40 0.0000e+00
      19764 166.565978     -0.318    254.809    14.3459   4.291956     2.3165    253.000 5.5666e-02    14.3082    35.4911  1027.6228    26.5011    3.13883         40 0.0000e+00
      19793 166.565992     -0.705    253.804    14.4885   4.317745     2.4098    252.000 5.6222e-02    14.4507    35.5989  1027.6702    26.5538    3.30837         25 0.0000e+00
      19818 166.566003     -0.929    252.800    14.5028   4.323967     2.4664    251.000 6.0550e-02    14.4652    35.6436  1027.6971    26.5852    3.41559         23 0.0000e+00
      19841 166.566015     -1.023    251.790    14.5159   4.327142     2.4934    250.000 5.7350e-02    14.4783    35.6613  1027.7034    26.5961    3.46620         23 0.0000e+00
      19864 166.566026     -1.035    250.783    14.5278   4.326028     2.4949    249.000 5.8241e-02    14.4904    35.6405  1027.6802    26.5773    3.46815         25 0.0000e+00
      19890 166.566038     -0.986    249.777    14.5393   4.318231     2.4679    248.000 6.1076e-02    14.5021    35.5584  1027.6100    26.5115    3.41648         26 0.0000e+00
      19924 166.566055     -0.773    248.770    14.4960   4.306067     2.4219    247.000 6.1051e-02    14.4590    35.4863  1027.5595    26.4650    3.33135         39 0.0000e+00
      19962 166.566073     -0.609    247.754    14.5368   4.313984     2.4102    246.000 6.2076e-02    14.4999    35.5224  1027.5738    26.4841    3.30491         30 0.0000e+00
      19989 166.566086     -0.795    246.750    14.6085   4.334457     2.4248    245.000 6.3663e-02    14.5716    35.6458  1027.6486    26.5639    3.32539         24 0.0000e+00
      20012 166.566097     -0.994    245.744    14.6348   4.335088     2.4502    244.000 6.2007e-02    14.5980    35.6279  1027.6246    26.5443    3.37268         23 0.0000e+00
      20036 166.566109     -1.039    244.739    14.6565   4.331921     2.4500    243.000 6.5894e-02    14.6198    35.5793  1027.5779    26.5020    3.37138         24 0.0000e+00
      20064 166.566122     -0.931    243.733    14.6343   4.314851     2.4286    242.000 6.9067e-02    14.5978    35.4430  1027.4734    26.4016    3.33393         32 0.0000e+00
      20099 166.566139     -0.702    242.719    14.6184   4.315936     2.4292    241.000 6.8511e-02    14.5821    35.4679  1027.4916    26.4242    3.33509         35 0.0000e+00
      20132 166.566155     -0.708    241.711    14.7638   4.335947     2.4495    240.000 6.9667e-02    14.7274    35.5195  1027.4947    26.4324    3.36323         30 0.0000e+00
      20161 166.566169     -0.808    240.704    14.7955   4.348377     2.4949    239.000 7.1091e-02    14.7591    35.6050  1027.5491    26.4915    3.44619         27 0.0000e+00
      20185 166.566181     -0.910    239.690    14.8199   4.356704     2.5236    238.000 7.2705e-02    14.7837    35.6594  1027.5810    26.5282    3.49817         20 0.0000e+00
      20208 166.566192     -1.067    238.694    14.8337   4.341727     2.5291    237.000 7.6204e-02    14.7977    35.5100  1027.4584    26.4097    3.51038         27 0.0000e+00
      20238 166.566206     -0.844    237.684    14.8257   4.338561     2.5231    236.000 7.6312e-02    14.7898    35.4886  1027.4393    26.3950    3.49951         28 0.0000e+00
      20267 166.566220     -0.839    236.680    14.8750   4.350908     2.5010    235.000 7.4728e-02    14.8392    35.5572  1027.4767    26.4371    3.45173         27 0.0000e+00
      20294 166.566233     -0.871    235.662    14.8923   4.353999     2.4831    234.000 7.2269e-02    14.8565    35.5702  1027.4784    26.4434    3.41560         26 0.0000e+00
      20319 166.566245     -0.943    234.660    14.9058   4.352132     2.4581    233.000 7.3738e-02    14.8702    35.5412  1027.4486    26.4179    3.36685         26 0.0000e+00
      20346 166.566258     -0.934    233.650    14.9177   4.354033     2.4281    232.000 7.5627e-02    14.8823    35.5482  1027.4468    26.4207    3.30800         27 0.0000e+00
      20373 166.566271     -0.894    232.646    14.9316   4.357583     2.3997    231.000 7.3821e-02    14.8963    35.5684  1027.4549    26.4332    3.25180         27 0.0000e+00
      20403 166.566286     -0.832    231.639    14.9470   4.352520     2.3580    230.000 7.2638e-02    14.9118    35.5085  1027.4009    26.3836    3.17183         31 0.0000e+00
      20437 166.566302     -0.735    230.627    14.9594   4.352026     2.3129    229.000 7.3436e-02    14.9243    35.4931  1027.3818    26.3690    3.08455         34 0.0000e+00
      20472 166.566319     -0.680    229.621    14.9949   4.359716     2.3013    228.000 7.5280e-02    14.9600    35.5315  1027.3989    26.3907    3.05911         32 0.0000e+00
      20502 166.566333     -0.763    228.616    15.0243   4.375490     2.3407    227.000 7.2208e-02    14.9895    35.6491  1027.4784    26.4749    3.12997         26 0.0000e+00
      20527 166.566346     -0.889    227.604    15.0512   4.381948     2.4027    226.000 6.7638e-02    15.0164    35.6839  1027.4947    26.4958    3.24559         23 0.0000e+00
      20549 166.566356     -1.017    226.595    15.0764   4.383424     2.4354    225.000 6.7578e-02    15.0418    35.6748  1027.4776    26.4832    3.30614         20 0.0000e+00
      20571 166.566367     -1.114    225.591    15.1278   4.383159     2.4299    224.000 6.2048e-02    15.0932    35.6260  1027.4241    26.4342    3.29279         23 0.0000e+00
      20595 166.566378     -1.080    224.584    15.1743   4.370343     2.4030    223.000 6.0303e-02    15.1399    35.4676  1027.2871    26.3016    3.24131         25 0.0000e+00
      20622 166.566391     -0.936    223.574    15.1929   4.368452     2.3875    222.000 5.5609e-02    15.1586    35.4340  1027.2526    26.2716    3.21084         29 0.0000e+00
      20648 166.566404     -0.886    222.562    15.3815   4.381656     2.3934    221.000 5.3402e-02    15.3471    35.3840  1027.1669    26.1910    3.21092         23 0.0000e+00
      20671 166.566415     -0.997    221.557    15.4367   4.402447     2.4241    220.000 5.4903e-02    15.4023    35.5226  1027.2566    26.2855    3.26261         22 0.0000e+00
      20693 166.566425     -1.085    220.554    15.4667   4.410549     2.4553    219.000 5.2421e-02    15.4324    35.5691  1027.2811    26.3146    3.31832         23 0.0000e+00
      20718 166.566438     -1.023    219.548    15.4766   4.403995     2.4488    218.000 5.2786e-02    15.4425    35.5014  1027.2223    26.2601    3.30628         29 0.0000e+00
      20754 166.566455     -0.746    218.537    15.4533   4.387887     2.4037    217.000 5.2349e-02    15.4194    35.3772  1027.1277    26.1696    3.22446         43 0.0000e+00
      20793 166.566474     -0.580    217.526    15.5021   4.419737     2.3847    216.000 5.1627e-02    15.4682    35.6213  1027.2999    26.3468    3.18032         32 0.0000e+00
      20820 166.566487     -0.793    216.517    15.5335   4.439784     2.4292    215.000 5.1058e-02    15.4997    35.7743  1027.4059    26.4575    3.25896         21 0.0000e+00
      20842 166.566497     -1.037    215.514    15.5440   4.441533     2.4534    214.000 5.1651e-02    15.5103    35.7810  1027.4042    26.4603    3.30342         23 0.0000e+00
      20865 166.566509     -1.052    214.509    15.5580   4.441210     2.4446    213.000 5.1118e-02    15.5245    35.7658  1027.3849    26.4454    3.28579         22 0.0000e+00
      20889 166.566520     -1.019    213.501    15.5756   4.440079     2.4053    212.000 5.1515e-02    15.5422    35.7400  1027.3566    26.4215    3.21063         25 0.0000e+00
      20914 166.566532     -0.995    212.490    15.5854   4.434622     2.3598    211.000 5.1858e-02    15.5522    35.6823  1027.3054    26.3748    3.12492         25 0.0000e+00
      20941 166.566545     -0.938    211.484    15.5950   4.438520     2.3268    210.000 5.1825e-02    15.5619    35.7092  1027.3195    26.3933    3.06119         27 0.0000e+00
      20968 166.566558     -0.904    210.474    15.6048   4.441603     2.2951    209.000 5.1138e-02    15.5718    35.7285  1027.3277    26.4059    3.00023         26 0.0000e+00
      20994 166.566571     -0.898    209.468    15.6261   4.442849     2.2738    208.000 5.1283e-02    15.5933    35.7208  1027.3124    26.3951    2.95869         27 0.0000e+00
      21020 166.566583     -0.924    208.459    15.7223   4.445261     2.2601    207.000 5.0788e-02    15.6895    35.6560  1027.2360    26.3234    2.92813         25 0.0000e+00
      21046 166.566596     -0.932    207.453    15.7918   4.447685     2.2504    206.000 5.1828e-02    15.7591    35.6155  1027.1843    26.2763    2.90652         27 0.0000e+00
      21072 166.566608     -0.927    206.447    15.8246   4.447157     2.2453    205.000 5.2043e-02    15.7920    35.5816  1027.1463    26.2428    2.89525         24 0.0000e+00
      21098 166.566621     -0.930    205.438    15.8675   4.452901     2.2468    204.000 5.2673e-02    15.8350    35.5949  1027.1421    26.2432    2.89506         28 0.0000e+00
      21126 166.566634     -0.901    204.432    15.9001   4.460202     2.2619    203.000 5.3994e-02    15.8677    35.6314  1027.1582    26.2638    2.92040         28 0.0000e+00
      21155 166.566649     -0.833    203.423    15.9273   4.470918     2.2969    202.000 5.3725e-02    15.8950    35.7032  1027.2027    26.3129    2.98271         30 0.0000e+00
      21185 166.566663     -0.821    202.411    15.9514   4.480120     2.3438    201.000 5.4697e-02    15.9192    35.7643  1027.2395    26.3543    3.06756         27 0.0000e+00
      21211 166.566675     -0.871    201.410    15.9607   4.487695     2.3855    200.000 5.4844e-02    15.9286    35.8241  1027.2789    26.3982    3.14330         24 0.0000e+00
      21235 166.566687     -0.988    200.399    15.9633   4.489800     2.4136    199.000 5.4839e-02    15.9314    35.8410  1027.2868    26.4106    3.19486         23 0.0000e+00
      21259 166.566698     -1.007    199.392    15.9692   4.493581     2.4321    198.000 5.3182e-02    15.9375    35.8699  1027.3032    26.4314    3.22789         26 0.0000e+00
      21283 166.566710     -0.986    198.384    16.0039   4.495036     2.4434    197.000 5.5783e-02    15.9723    35.8519  1027.2769    26.4096    3.24680         23 0.0000e+00
      21309 166.566723     -0.976    197.381    16.0368   4.485026     2.4342    196.000 5.5906e-02    16.0053    35.7331  1027.1735    26.3105    3.22961         28 0.0000e+00
      21339 166.566737     -0.850    196.371    16.0266   4.470098     2.4033    195.000 5.7438e-02    15.9953    35.6094  1027.0764    26.2176    3.17455         31 0.0000e+00
      21370 166.566752     -0.756    195.359    16.0715   4.486932     2.3859    194.000 5.5029e-02    16.0403    35.7197  1027.1462    26.2922    3.13680         27 0.0000e+00
      21395 166.566764     -0.897    194.358    16.0989   4.501563     2.4026    193.000 5.8369e-02    16.0678    35.8260  1027.2171    26.3676    3.16371         24 0.0000e+00
      21420 166.566776     -0.965    193.353    16.1118   4.500410     2.4309    192.000 5.8886e-02    16.0808    35.8045  1027.1931    26.3481    3.21561         26 0.0000e+00
      21448 166.566789     -0.905    192.341    16.1274   4.504632     2.4364    191.000 5.8833e-02    16.0966    35.8285  1027.2034    26.3629    3.22395         27 0.0000e+00
      21478 166.566804     -0.829    191.334    16.1656   4.507997     2.4279    190.000 5.9127e-02    16.1349    35.8244  1027.1869    26.3509    3.20545         31 0.0000e+00
      21508 166.566819     -0.789    190.321    16.2348   4.516985     2.4458    189.000 6.3850e-02    16.2042    35.8425  1027.1801    26.3488    3.23366         28 0.0000e+00
      21536 166.566832     -0.828    189.316    16.3188   4.523925     2.4939    188.000 5.9454e-02    16.2882    35.8291  1027.1456    26.3189    3.31738         25 0.0000e+00
      21559 166.566843     -0.955    188.309    16.4177   4.532863     2.5331    187.000 5.9173e-02    16.3872    35.8199  1027.1107    26.2887    3.38336         22 0.0000e+00
      21579 166.566853     -1.109    187.303    16.4739   4.539841     2.5548    186.000 5.9999e-02    16.4434    35.8317  1027.1020    26.2846    3.41915         19 0.0000e+00
      21600 166.566863     -1.191    186.297    16.5105   4.537293     2.5528    185.000 6.0929e-02    16.4802    35.7767  1027.0467    26.2337    3.41381         20 0.0000e+00
      21621 166.566873     -1.173    185.294    16.5652   4.532587     2.5511    184.000 6.1766e-02    16.5350    35.6866  1026.9601    26.1516    3.40848         22 0.0000e+00
      21650 166.566887     -0.958    184.286    16.6033   4.560813     2.7169    183.000 6.4092e-02    16.5732    35.9022  1027.1121    26.3083    3.70592         35 0.0000e+00
      21691 166.566907     -0.613    183.273    16.6633   4.599754     2.8965    182.000 6.0237e-02    16.6332    36.1923  1027.3160    26.5172    4.02421         43 0.0000e+00
      21729 166.566925     -0.598    182.257    16.7402   4.609311     2.9116    181.000 6.3317e-02    16.7102    36.2076  1027.3048    26.5107    4.04527         31 0.0000e+00
      21753 166.566937     -0.844    181.255    16.7734   4.608377     2.8555    180.000 6.2522e-02    16.7436    36.1697  1027.2634    26.4737    3.94040         21 0.0000e+00
      21774 166.566947     -1.062    180.247    16.8242   4.606183     2.8619    179.000 5.6115e-02    16.7944    36.1051  1027.1972    26.4119    3.94942         19 0.0000e+00
      21792 166.566956     -1.216    179.245    16.8511   4.617370     2.9113    178.000 5.5561e-02    16.8215    36.1796  1027.2435    26.4627    4.03523         18 0.0000e+00
      21811 166.566965     -1.294    178.237    16.8852   4.627001     2.9496    177.000 5.4401e-02    16.8557    36.2339  1027.2725    26.4963    4.10077         20 0.0000e+00
      21832 166.566975     -1.234    177.236    16.9127   4.630405     2.9736    176.000 5.5489e-02    16.8834    36.2394  1027.2657    26.4939    4.14167         22 0.0000e+00
      21861 166.566989     -0.980    176.224    16.9152   4.630694     2.9897    175.000 5.6924e-02    16.8860    36.2402  1027.2612    26.4939    4.17027         33 0.0000e+00
      21894 166.567005     -0.728    175.211    16.9296   4.632542     2.9993    174.000 5.7523e-02    16.9005    36.2438  1027.2561    26.4932    4.18583         31 0.0000e+00
      21927 166.567020     -0.736    174.207    16.9387   4.633571     3.0051    173.000 6.1602e-02    16.9098    36.2450  1027.2504    26.4919    4.19519         34 0.0000e+00
      21957 166.567035     -0.767    173.195    16.9481   4.634785     3.0102    172.000 5.7949e-02    16.9193    36.2477  1027.2458    26.4917    4.20299         26 0.0000e+00
      21982 166.567047     -0.890    172.191    16.9735   4.637994     3.0142    171.000 5.6728e-02    16.9449    36.2533  1027.2395    26.4899    4.20763         25 0.0000e+00
      22007 166.567059     -0.980    171.186    16.9984   4.640962     3.0183    170.000 5.7834e-02    16.9699    36.2573  1027.2321    26.4870    4.21240         22 0.0000e+00
      22031 166.567071     -1.000    170.175    17.0197   4.643449     3.0213    169.000 5.6553e-02    16.9914    36.2603  1027.2248    26.4841    4.21559         26 0.0000e+00
      22055 166.567083     -0.978    169.166    17.0269   4.644231     3.0236    168.000 5.7556e-02    16.9987    36.2611  1027.2193    26.4829    4.21865         21 0.0000e+00
      22077 166.567093     -1.047    168.162    17.0331   4.644905     3.0236    167.000 5.7555e-02    17.0051    36.2618  1027.2139    26.4820    4.21752         22 0.0000e+00
      22099 166.567103     -1.112    167.158    17.0349   4.645109     3.0233    166.000 5.5925e-02    17.0071    36.2623  1027.2095    26.4819    4.21618         22 0.0000e+00
      22122 166.567115     -1.081    166.148    17.0397   4.645701     3.0235    165.000 5.6965e-02    17.0120    36.2636  1027.2049    26.4817    4.21564         25 0.0000e+00
      22148 166.567127     -0.980    165.142    17.0546   4.647515     3.0253    164.000 5.7571e-02    17.0270    36.2665  1027.1991    26.4803    4.21711         27 0.0000e+00
      22178 166.567141     -0.859    164.134    17.0645   4.648735     3.0269    163.000 5.5855e-02    17.0372    36.2686  1027.1938    26.4795    4.21851         32 0.0000e+00
      22210 166.567157     -0.759    163.123    17.0854   4.651268     3.0281    162.000 5.7022e-02    17.0582    36.2724  1027.1872    26.4774    4.21849         32 0.0000e+00
      22240 166.567172     -0.777    162.117    17.1042   4.653360     3.0295    161.000 5.5657e-02    17.0772    36.2741  1027.1796    26.4741    4.21884         29 0.0000e+00
      22268 166.567185     -0.847    161.110    17.1064   4.653626     3.0305    160.000 5.4701e-02    17.0795    36.2749  1027.1752    26.4742    4.22001         30 0.0000e+00
      22517 166.567305     -0.651    160.112    17.1204   4.655343     3.0310    159.000 5.4993e-02    17.0937    36.2777  1027.1696    26.4729    4.21911         40 0.0000e+00
      23099 166.567586     -0.700    159.091    17.1403   4.657751     3.0361    158.000 5.4662e-02    17.1137    36.2813  1027.1630    26.4708    4.22604         28 0.0000e+00
      23092 166.567582     -0.883    158.095    17.1600   4.660165     3.0365    157.000 5.4025e-02    17.1335    36.2850  1027.1568    26.4689    4.22469         29 0.0000e+00
      23131 166.567601     -0.666    157.085    17.1622   4.660328     3.0394    156.000 5.4587e-02    17.1359    36.2849  1027.1517    26.4682    4.22910         52 0.0000e+00
      23199 166.567634     -0.325    156.072    17.1689   4.661203     3.0436    155.000 5.4125e-02    17.1428    36.2869  1027.1471    26.4681    4.23561         51 0.0000e+00
      23248 166.567658     -0.511    155.063    17.2141   4.666903     3.0430    154.000 5.5805e-02    17.1881    36.2964  1027.1390    26.4645    4.23003         38 0.0000e+00
      23281 166.567674     -0.693    154.059    17.2652   4.673284     3.0435    153.000 5.2892e-02    17.2393    36.3065  1027.1299    26.4599    4.22618         29 0.0000e+00
      23310 166.567688     -0.813    153.052    17.3213   4.679905     3.0455    152.000 5.2835e-02    17.2955    36.3142  1027.1177    26.4522    4.22461         29 0.0000e+00
      23341 166.567703     -0.794    152.048    17.3509   4.683399     3.0454    151.000 5.1055e-02    17.3253    36.3185  1027.1092    26.4482    4.22137         32 0.0000e+00
      23374 166.567719     -0.741    151.038    17.4440   4.695242     3.0465    150.000 5.1178e-02    17.4184    36.3383  1027.0972    26.4408    4.21498         35 0.0000e+00
      23409 166.567735     -0.699    150.027    17.4992   4.701602     3.0489    149.000 5.0869e-02    17.4737    36.3444  1027.0838    26.4320    4.21432         33 0.0000e+00
      23438 166.567749     -0.789    149.022    17.5270   4.704816     3.0498    148.000 4.9711e-02    17.5017    36.3478  1027.0751    26.4277    4.21299         27 0.0000e+00
      23467 166.567764     -0.834    148.021    17.5383   4.706053     3.0506    147.000 5.0308e-02    17.5132    36.3487  1027.0687    26.4256    4.21306         32 0.0000e+00
      23511 166.567784     -0.586    147.011    17.5442   4.706856     3.0531    146.000 5.0319e-02    17.5192    36.3508  1027.0644    26.4257    4.21645         52 0.0000e+00
      23559 166.567807     -0.482    145.997    17.5757   4.711156     3.0550    145.000 5.1965e-02    17.5508    36.3603  1027.0595    26.4253    4.21649         37 0.0000e+00
      23591 166.567823     -0.701    144.994    17.6756   4.724247     3.0589    144.000 5.0452e-02    17.6508    36.3845  1027.0488    26.4193    4.21461         30 0.0000e+00
      23621 166.567837     -0.802    143.983    17.8037   4.739679     3.0654    143.000 4.9731e-02    17.7789    36.4036  1027.0272    26.4024    4.21515         28 0.0000e+00
      23647 166.567850     -0.867    142.978    17.8688   4.747869     3.0695    142.000 5.0834e-02    17.8441    36.4164  1027.0164    26.3961    4.21648         26 0.0000e+00
      23671 166.567862     -0.959    141.970    17.9419   4.757100     3.0739    141.000 5.0520e-02    17.9174    36.4309  1027.0048    26.3891    4.21783         24 0.0000e+00
      23696 166.567874     -0.998    140.968    17.9802   4.761635     3.0773    140.000 4.9935e-02    17.9558    36.4361  1026.9948    26.3835    4.22023         26 0.0000e+00
      23725 166.567888     -0.884    139.961    18.0211   4.767132     3.0834    139.000 5.2216e-02    17.9969    36.4471  1026.9886    26.3817    4.22701         33 0.0000e+00
      23771 166.567910     -0.554    138.950    18.0681   4.772281     3.0841    138.000 5.1624e-02    18.0440    36.4499  1026.9745    26.3721    4.22387         57 0.0000e+00
      23817 166.567932     -0.492    137.938    18.1356   4.781618     3.0915    137.000 5.1280e-02    18.1116    36.4701  1026.9686    26.3708    4.23071         30 0.0000e+00
      23843 166.567945     -0.810    136.935    18.1988   4.789719     3.0980    136.000 5.3438e-02    18.1749    36.4835  1026.9585    26.3651    4.23640         24 0.0000e+00
      23868 166.567956     -0.975    135.930    18.2822   4.800346     3.1048    135.000 5.2473e-02    18.2585    36.5004  1026.9460    26.3572    4.24091         25 0.0000e+00
      23895 166.567970     -0.931    134.924    18.3288   4.805629     3.1123    134.000 5.2900e-02    18.3051    36.5045  1026.9329    26.3485    4.24994         30 0.0000e+00
      23927 166.567985     -0.787    133.915    18.3521   4.809116     3.1143    133.000 5.3665e-02    18.3286    36.5139  1026.9298    26.3499    4.25073         35 0.0000e+00
      23961 166.568001     -0.704    132.905    18.4043   4.816235     3.1193    132.000 5.3601e-02    18.3809    36.5285  1026.9233    26.3479    4.25469         30 0.0000e+00
      23991 166.568016     -0.780    131.898    18.5134   4.830031     3.1237    131.000 5.6354e-02    18.4901    36.5494  1026.9071    26.3363    4.25282         31 0.0000e+00
      24021 166.568031     -0.808    130.895    18.5932   4.839432     3.1253    130.000 5.8238e-02    18.5700    36.5588  1026.8895    26.3232    4.24865         29 0.0000e+00
      24054 166.568047     -0.746    129.887    18.6243   4.843307     3.1291    129.000 5.8614e-02    18.6013    36.5644  1026.8814    26.3195    4.25213         35 0.0000e+00
      24093 166.568065     -0.635    128.880    18.6437   4.845652     3.1325    128.000 6.0746e-02    18.6209    36.5675  1026.8744    26.3169    4.25596         39 0.0000e+00
      24132 166.568084     -0.608    127.871    18.6703   4.849091     3.1325    127.000 5.8810e-02    18.6475    36.5734  1026.8677    26.3147    4.25321         35 0.0000e+00
      24163 166.568099     -0.746    126.862    18.7003   4.852553     3.1344    126.000 6.0259e-02    18.6777    36.5766  1026.8580    26.3094    4.25360         28 0.0000e+00
      24192 166.568113     -0.821    125.859    18.7199   4.855111     3.1376    125.000 5.9424e-02    18.6975    36.5812  1026.8521    26.3078    4.25694         27 0.0000e+00
      24220 166.568127     -0.854    124.856    18.7446   4.858286     3.1399    124.000 6.0440e-02    18.7224    36.5866  1026.8455    26.3056    4.25827         30 0.0000e+00
      24254 166.568143     -0.762    123.845    18.7602   4.859984     3.1391    123.000 6.1478e-02    18.7381    36.5875  1026.8378    26.3023    4.25518         37 0.0000e+00
      24301 166.568165     -0.519    122.835    18.7743   4.861800     3.1402    122.000 6.2498e-02    18.7524    36.5907  1026.8323    26.3012    4.25525         51 0.0000e+00
      24347 166.568187     -0.517    121.826    18.9012   4.878704     3.1477    121.000 6.3254e-02    18.8794    36.6215  1026.8186    26.2922    4.25726         38 0.0000e+00
      24379 166.568203     -0.690    120.818    19.0235   4.894117     3.1484    120.000 6.4682e-02    19.0017    36.6436  1026.7995    26.2776    4.24799         29 0.0000e+00
      24408 166.568217     -0.832    119.818    19.0530   4.897428     3.1481    119.000 6.6594e-02    19.0314    36.6457  1026.7890    26.2716    4.24462         30 0.0000e+00
      24446 166.568236     -0.671    118.809    19.0455   4.896481     3.1485    118.000 7.9066e-02    19.0241    36.6448  1026.7859    26.2728    4.24520         49 0.0000e+00
      24496 166.568260     -0.440    117.792    19.0654   4.899336     3.1548    117.000 7.6911e-02    19.0442    36.6515  1026.7815    26.2727    4.25398         38 0.0000e+00
      24525 166.568274     -0.710    116.791    19.1679   4.912628     3.1589    116.000 7.6677e-02    19.1468    36.6730  1026.7668    26.2627    4.25206         27 0.0000e+00
      24550 166.568286     -0.928    115.786    19.2125   4.918169     3.1575    115.000 8.1039e-02    19.1915    36.6805  1026.7566    26.2568    4.24549         26 0.0000e+00
      24578 166.568299     -0.931    114.784    19.2392   4.921366     3.1541    114.000 9.3460e-02    19.2184    36.6841  1026.7480    26.2526    4.23696         32 0.0000e+00
      24622 166.568320     -0.568    113.771    19.2401   4.921452     3.1511    113.000 1.0323e-01    19.2195    36.6844  1026.7435    26.2525    4.23098         52 0.0000e+00
      24669 166.568343     -0.499    112.767    19.3191   4.932559     3.1593    112.000 1.0555e-01    19.2986    36.7081  1026.7366    26.2500    4.23798         37 0.0000e+00
      24705 166.568360     -0.669    111.756    19.4475   4.948212     3.1587    111.000 1.0408e-01    19.4271    36.7261  1026.7122    26.2303    4.22622         33 0.0000e+00
      24738 166.568376     -0.716    110.756    19.4686   4.951081     3.1561    110.000 1.1017e-01    19.4483    36.7319  1026.7067    26.2292    4.21943         33 0.0000e+00
      24780 166.568396     -0.604    109.747    19.5143   4.957119     3.1562    109.000 1.1725e-01    19.4941    36.7424  1026.6983    26.2252    4.21540         46 0.0000e+00
      24828 166.568420     -0.483    108.734    19.6574   4.977936     3.1655    108.000 1.2173e-01    19.6374    36.7900  1026.6924    26.2239    4.21884         42 0.0000e+00
      24861 166.568436     -0.667    107.726    19.9414   5.013431     3.1753    107.000 1.1004e-01    19.9213    36.8352  1026.6470    26.1833    4.21258         26 0.0000e+00
      24886 166.568447     -0.909    106.719    20.1735   5.043962     3.1860    106.000 1.0797e-01    20.1535    36.8839  1026.6175    26.1585    4.21170         25 0.0000e+00
      24909 166.568459     -1.007    105.717    20.2649   5.054337     3.1912    105.000 1.0580e-01    20.2450    36.8895  1026.5928    26.1383    4.21301         21 0.0000e+00
      24938 166.568472     -0.929    104.714    20.2949   5.057377     3.1916    104.000 1.1602e-01    20.2751    36.8887  1026.5797    26.1296    4.21083         34 0.0000e+00
      24978 166.568492     -0.629    103.703    20.2939   5.057397     3.1970    103.000 1.1899e-01    20.2743    36.8901  1026.5766    26.1309    4.21943         43 0.0000e+00
      25025 166.568515     -0.500    102.694    20.3448   5.064512     3.2043    102.000 1.2514e-01    20.3254    36.9043  1026.5693    26.1280    4.22711         43 0.0000e+00
      25061 166.568532     -0.644    101.688    20.5221   5.087234     3.2103    101.000 1.2877e-01    20.5028    36.9359  1026.5409    26.1042    4.22272         30 0.0000e+00
      25094 166.568548     -0.724    100.684    20.6356   5.102250     3.2206    100.000 1.5020e-01    20.6164    36.9598  1026.5239    26.0916    4.23033         32 0.0000e+00
      25127 166.568564     -0.729     99.677    20.7650   5.119262     3.2305     99.000 1.4675e-01    20.7459    36.9860  1026.5040    26.0763    4.23620         27 0.0000e+00
      25155 166.568577     -0.832     98.668    20.9471   5.142827     3.2401     98.000 1.7383e-01    20.9281    37.0194  1026.4750    26.0519    4.23739         27 0.0000e+00
      25184 166.568591     -0.864     97.662    21.0338   5.153962     3.2467     97.000 2.0270e-01    21.0149    37.0346  1026.4583    26.0397    4.24108         30 0.0000e+00
      25219 166.568608     -0.702     96.658    21.0893   5.160480     3.2543     96.000 2.2855e-01    21.0706    37.0394  1026.4423    26.0280    4.24897         36 0.0000e+00
      25254 166.568625     -0.672     95.640    21.3267   5.191670     3.2731     95.000 2.0709e-01    21.3080    37.0855  1026.4069    25.9974    4.26092         29 0.0000e+00
      25281 166.568638     -0.834     94.640    21.6526   5.231363     3.2958     94.000 2.3376e-01    21.6339    37.1226  1026.3396    25.9348    4.27292         24 0.0000e+00
      25306 166.568650     -0.942     93.633    21.8324   5.253096     3.3104     93.000 2.6509e-01    21.8139    37.1413  1026.2987    25.8985    4.28259         28 0.0000e+00
      25338 166.568666     -0.828     92.627    21.9336   5.266162     3.3214     92.000 2.7538e-01    21.9152    37.1586  1026.2788    25.8830    4.29220         37 0.0000e+00
      25383 166.568687     -0.526     91.612    21.8665   5.256806     3.3275     91.000 3.0176e-01    21.8483    37.1423  1026.2811    25.8895    4.30698         45 0.0000e+00
      25417 166.568704     -0.635     90.605    22.3554   5.322867     3.3570     90.000 2.8125e-01    22.3371    37.2460  1026.2159    25.8293    4.31605         27 0.0000e+00
      25441 166.568715     -0.908     89.598    22.6272   5.351979     3.3722     89.000 3.0086e-01    22.6089    37.2430  1026.1312    25.7493    4.32026         20 0.0000e+00
      25462 166.568725     -1.083     88.599    22.7010   5.361633     3.3824     88.000 3.1849e-01    22.6829    37.2561  1026.1154    25.7378    4.33043         23 0.0000e+00
      25486 166.568737     -1.082     87.593    22.7433   5.366631     3.3867     87.000 3.3711e-01    22.7253    37.2595  1026.1014    25.7282    4.33352         26 0.0000e+00
      25517 166.568752     -0.866     86.583    22.7280   5.363441     3.3844     86.000 3.4305e-01    22.7103    37.2479  1026.0927    25.7237    4.33063         35 0.0000e+00
      25553 166.568769     -0.682     85.575    22.7419   5.367137     3.3888     85.000 3.5838e-01    22.7244    37.2653  1026.0975    25.7328    4.33581         36 0.0000e+00
      25590 166.568787     -0.635     84.566    22.9070   5.387628     3.3995     84.000 3.9065e-01    22.8897    37.2851  1026.0601    25.7000    4.33988         38 0.0000e+00
      25624 166.568804     -0.700     83.562    23.0224   5.402214     3.4083     83.000 3.7277e-01    23.0052    37.3010  1026.0341    25.6784    4.34451         30 0.0000e+00
      26020 166.568994     -0.318     82.555    23.0611   5.406158     3.4231     82.000 4.2542e-01    23.0441    37.2992  1026.0171    25.6657    4.36493         61 0.0000e+00
      26368 166.569162     -0.331     81.544    23.0853   5.409333     3.4321     81.000 3.8221e-01    23.0684    37.3037  1026.0091    25.6620    4.37689         35 0.0000e+00
      26384 166.569170     -0.728     80.537    23.0936   5.410344     3.4321     80.000 3.8672e-01    23.0770    37.3048  1026.0031    25.6604    4.37559         26 0.0000e+00
      26411 166.569183     -0.887     79.535    23.0961   5.410631     3.4299     79.000 3.9274e-01    23.0797    37.3053  1025.9985    25.6600    4.37127         28 0.0000e+00
      26442 166.569198     -0.819     78.530    23.0918   5.410052     3.4316     78.000 4.0978e-01    23.0756    37.3048  1025.9950    25.6608    4.37370         36 0.0000e+00
      26490 166.569221     -0.511     77.519    23.0949   5.410498     3.4314     77.000 4.1469e-01    23.0789    37.3059  1025.9906    25.6607    4.37262         58 0.0000e+00
      26542 166.569246     -0.463     76.511    23.1107   5.412647     3.4345     76.000 4.2702e-01    23.0949    37.3096  1025.9844    25.6588    4.37566         45 0.0000e+00
      26585 166.569267     -0.562     75.503    23.1169   5.413390     3.4335     75.000 4.1068e-01    23.1012    37.3105  1025.9789    25.6576    4.37310         41 0.0000e+00
      26622 166.569285     -0.642     74.494    23.1178   5.413489     3.4345     74.000 4.4549e-01    23.1024    37.3108  1025.9746    25.6575    4.37392         32 0.0000e+00
      26650 166.569298     -0.793     73.488    23.1193   5.413636     3.4390     73.000 3.9262e-01    23.1041    37.3111  1025.9700    25.6572    4.38041         24 0.0000e+00
      26674 166.569310     -0.945     72.486    23.1199   5.413671     3.4393     72.000 3.7900e-01    23.1049    37.3112  1025.9655    25.6571    4.38027         26 0.0000e+00
      26699 166.569322     -0.981     71.478    23.1204   5.413707     3.4379     71.000 3.6404e-01    23.1056    37.3113  1025.9612    25.6570    4.37740         23 0.0000e+00
      26727 166.569335     -0.917     70.474    23.1204   5.413639     3.4352     70.000 4.2814e-01    23.1058    37.3112  1025.9568    25.6569    4.37247         31 0.0000e+00
      26758 166.569351     -0.787     69.466    23.1206   5.413653     3.4380     69.000 3.9929e-01    23.1062    37.3115  1025.9526    25.6569    4.37642         32 0.0000e+00
      26975 166.569455     -0.566     68.460    23.1207   5.413647     3.4447     68.000 4.2037e-01    23.1066    37.3117  1025.9483    25.6570    4.38648         36 0.0000e+00
      27563 166.569739     -0.389     67.451    23.1214   5.413722     3.4455     67.000 4.2757e-01    23.1075    37.3120  1025.9440    25.6569    4.38705         50 0.0000e+00
      27630 166.569771     -0.340     66.442    23.1208   5.413596     3.4360     66.000 4.0012e-01    23.1070    37.3120  1025.9398    25.6570    4.37128         63 0.0000e+00
      27673 166.569791     -0.563     65.438    23.1218   5.413680     3.4406     65.000 3.8221e-01    23.1083    37.3121  1025.9353    25.6568    4.37811         31 0.0000e+00
      27707 166.569808     -0.719     64.431    23.1219   5.413651     3.4425     64.000 3.9523e-01    23.1086    37.3122  1025.9310    25.6567    4.38051         38 0.0000e+00
      27752 166.569830     -0.547     63.422    23.1214   5.413560     3.4447     63.000 4.3895e-01    23.1083    37.3122  1025.9268    25.6569    4.38347         51 0.0000e+00
      27802 166.569854     -0.469     62.412    23.1214   5.413519     3.4496     62.000 3.8675e-01    23.1085    37.3123  1025.9225    25.6569    4.39062         39 0.0000e+00
      27836 166.569870     -0.661     61.407    23.1220   5.413545     3.4477     61.000 3.7943e-01    23.1093    37.3123  1025.9180    25.6566    4.38706         34 0.0000e+00
      27866 166.569885     -0.777     60.402    23.1215   5.413437     3.4468     60.000 3.8129e-01    23.1090    37.3122  1025.9137    25.6566    4.38499         29 0.0000e+00
      27895 166.569899     -0.843     59.397    23.1222   5.413507     3.4477     59.000 3.6970e-01    23.1099    37.3125  1025.9094    25.6566    4.38575         28 0.0000e+00
      27928 166.569915     -0.771     58.392    23.1225   5.413488     3.4451     58.000 3.9548e-01    23.1104    37.3125  1025.9050    25.6565    4.38098         41 0.0000e+00
      27981 166.569940     -0.433     57.380    23.1216   5.413371     3.4481     57.000 4.1401e-01    23.1098    37.3127  1025.9010    25.6568    4.38523         58 0.0000e+00
      28036 166.569967     -0.446     56.374    23.1235   5.413541     3.4476     56.000 3.8462e-01    23.1118    37.3128  1025.8962    25.6563    4.38372         44 0.0000e+00
      28070 166.569983     -0.661     55.365    23.1244   5.413182     3.4490     55.000 3.6883e-01    23.1130    37.3095  1025.8891    25.6535    4.38534         27 0.0000e+00
      28096 166.569996     -0.858     54.362    23.1253   5.413721     3.4492     54.000 3.5426e-01    23.1141    37.3133  1025.8874    25.6560    4.38496         27 0.0000e+00
      28125 166.570010     -0.867     53.357    23.1255   5.413693     3.4479     53.000 3.8158e-01    23.1145    37.3133  1025.8830    25.6559    4.38221         33 0.0000e+00
      28162 166.570028     -0.687     52.349    23.1252   5.413627     3.4481     52.000 3.7859e-01    23.1144    37.3133  1025.8788    25.6559    4.38196         40 0.0000e+00
      28203 166.570047     -0.574     51.339    23.1260   5.413683     3.4524     51.000 3.4627e-01    23.1154    37.3135  1025.8743    25.6558    4.38823         37 0.0000e+00
      28235 166.570063     -0.717     50.331    23.1262   5.413628     3.4486     50.000 3.5215e-01    23.1158    37.3133  1025.8697    25.6555    4.38155         27 0.0000e+00
      28260 166.570075     -0.889     49.328    23.1256   5.413513     3.4530     49.000 3.3672e-01    23.1154    37.3132  1025.8655    25.6555    4.38803         26 0.0000e+00
      28291 166.570090     -0.858     48.324    23.1253   5.413440     3.4604     48.000 3.6003e-01    23.1153    37.3133  1025.8613    25.6556    4.39917         37 0.0000e+00
      28338 166.570113     -0.505     47.313    23.1248   5.413349     3.4590     47.000 3.5427e-01    23.1151    37.3133  1025.8571    25.6557    4.39648         51 0.0000e+00
      28384 166.570135     -0.520     46.303    23.1256   5.413408     3.4597     46.000 3.4540e-01    23.1161    37.3134  1025.8526    25.6555    4.39690         38 0.0000e+00
      28417 166.570150     -0.706     45.300    23.1260   5.413435     3.4573     45.000 3.3396e-01    23.1167    37.3137  1025.8484    25.6555    4.39245         31 0.0000e+00
      28448 166.570165     -0.775     44.294    23.1258   5.413349     3.4580     44.000 3.4206e-01    23.1167    37.3135  1025.8440    25.6554    4.39298         31 0.0000e+00
      28481 166.570181     -0.730     43.286    23.1260   5.413336     3.4519     43.000 3.5907e-01    23.1170    37.3137  1025.8397    25.6554    4.38256         34 0.0000e+00
      28519 166.570200     -0.668     42.281    23.1254   5.413206     3.4523     42.000 3.4892e-01    23.1167    37.3135  1025.8353    25.6553    4.38266         45 0.0000e+00
      28568 166.570223     -0.491     41.274    23.1247   5.413093     3.4595     41.000 3.4459e-01    23.1162    37.3135  1025.8313    25.6556    4.39363         51 0.0000e+00
      28617 166.570247     -0.485     40.262    23.1247   5.413030     3.4601     40.000 3.2306e-01    23.1164    37.3134  1025.8268    25.6554    4.39407         40 0.0000e+00
      28650 166.570263     -0.681     39.258    23.1250   5.413016     3.4579     39.000 3.2118e-01    23.1169    37.3134  1025.8224    25.6552    4.38995         30 0.0000e+00
      28682 166.570278     -0.758     38.255    23.1250   5.412974     3.4600     38.000 3.2208e-01    23.1171    37.3134  1025.8181    25.6552    4.39259         39 0.0000e+00
      28724 166.570299     -0.580     37.245    23.1249   5.412936     3.4640     37.000 3.2932e-01    23.1172    37.3136  1025.8139    25.6553    4.39836         42 0.0000e+00
      28767 166.570319     -0.558     36.240    23.1252   5.412917     3.4660     36.000 3.0582e-01    23.1177    37.3135  1025.8094    25.6551    4.40097         42 0.0000e+00
      28809 166.570339     -0.582     35.231    23.1252   5.412872     3.4635     35.000 3.0017e-01    23.1179    37.3135  1025.8050    25.6550    4.39635         38 0.0000e+00
      28843 166.570356     -0.682     34.225    23.1257   5.412872     3.4560     34.000 3.1647e-01    23.1186    37.3135  1025.8005    25.6548    4.38381         30 0.0000e+00
      28875 166.570371     -0.756     33.222    23.1256   5.412818     3.4614     33.000 2.9835e-01    23.1188    37.3135  1025.7962    25.6547    4.39179         35 0.0000e+00
      28913 166.570390     -0.646     32.213    23.1256   5.412781     3.4604     32.000 2.8186e-01    23.1189    37.3136  1025.7919    25.6548    4.38967         41 0.0000e+00
      28958 166.570411     -0.527     31.204    23.1256   5.412740     3.4594     31.000 2.7119e-01    23.1192    37.3136  1025.7875    25.6547    4.38746         42 0.0000e+00
      28993 166.570428     -0.658     30.197    23.1265   5.412797     3.4596     30.000 2.7963e-01    23.1203    37.3136  1025.7830    25.6544    4.38715         32 0.0000e+00
      29028 166.570445     -0.726     29.194    23.1264   5.412735     3.4634     29.000 2.6146e-01    23.1203    37.3136  1025.7787    25.6544    4.39264         36 0.0000e+00
      29069 166.570465     -0.587     28.188    23.1259   5.412650     3.4690     28.000 2.5710e-01    23.1201    37.3137  1025.7746    25.6545    4.40092         40 0.0000e+00
      29115 166.570487     -0.528     27.180    23.1275   5.412847     3.4676     27.000 2.4717e-01    23.1219    37.3142  1025.7701    25.6544    4.39793         48 0.0000e+00
      29162 166.570510     -0.510     26.173    23.1278   5.412834     3.4637     26.000 2.3809e-01    23.1224    37.3142  1025.7657    25.6542    4.39108         44 0.0000e+00
      29206 166.570531     -0.553     25.164    23.1279   5.412819     3.4639     25.000 2.3397e-01    23.1227    37.3143  1025.7614    25.6542    4.39080         38 0.0000e+00
      29241 166.570548     -0.664     24.160    23.1311   5.413199     3.4647     24.000 2.2812e-01    23.1261    37.3150  1025.7566    25.6537    4.39123         34 0.0000e+00
      29278 166.570565     -0.675     23.155    23.1329   5.413340     3.4675     23.000 2.3353e-01    23.1281    37.3149  1025.7517    25.6531    4.39507         42 0.0000e+00
      29332 166.570592     -0.414     22.142    23.1325   5.413233     3.4716     22.000 2.0358e-01    23.1279    37.3147  1025.7473    25.6530    4.40094         52 0.0000e+00
      29366 166.570608     -0.614     21.137    23.1334   5.413261     3.4712     21.000 2.0830e-01    23.1290    37.3146  1025.7426    25.6526    4.39964         24 0.0000e+00
      29389 166.570619     -0.964     20.128    23.1336   5.413220     3.4701     20.000 2.0833e-01    23.1295    37.3144  1025.7380    25.6523    4.39722         21 0.0000e+00
      29410 166.570629     -1.088     19.129    23.1336   5.413185     3.4699     19.000 1.9769e-01    23.1297    37.3145  1025.7338    25.6523    4.39634         23 0.0000e+00
      29439 166.570643     -0.970     18.126    23.1337   5.413143     3.4683     18.000 2.0049e-01    23.1300    37.3144  1025.7293    25.6522    4.39320         41 0.0000e+00
      29499 166.570672     -0.387     17.113    23.1336   5.413078     3.4714     17.000 1.8286e-01    23.1301    37.3143  1025.7250    25.6521    4.39758         56 0.0000e+00
      29559 166.570701     -0.421     16.105    23.1351   5.413141     3.4709     16.000 1.9298e-01    23.1318    37.3139  1025.7198    25.6513    4.39601         54 0.0000e+00
      29611 166.570726     -0.469     15.098    23.1352   5.413067     3.4716     15.000 1.8765e-01    23.1320    37.3137  1025.7153    25.6510    4.39661         45 0.0000e+00
      29656 166.570748     -0.536     14.093    23.1360   5.413064     3.4737     14.000 1.8430e-01    23.1331    37.3133  1025.7104    25.6504    4.39928         50 0.0000e+00
      29701 166.570770     -0.512     13.082    23.1363   5.413034     3.4741     13.000 1.7677e-01    23.1336    37.3132  1025.7059    25.6502    4.39935         38 0.0000e+00
      29737 166.570787     -0.663     12.082    23.1405   5.413470     3.4735     12.000 1.7382e-01    23.1380    37.3133  1025.7004    25.6490    4.39738         37 0.0000e+00
      29784 166.570810     -0.522     11.072    23.1433   5.413725     3.4712     11.000 1.7386e-01    23.1410    37.3133  1025.6952    25.6481    4.39301         54 0.0000e+00
      29834 166.570834     -0.477     10.064    23.1462   5.414036     3.4778     10.000 1.6375e-01    23.1442    37.3135  1025.6902    25.6474    4.40263         40 0.0000e+00
      29879 166.570856     -0.526      9.061    23.1521   5.414621     3.4768      9.000 1.5925e-01    23.1502    37.3135  1025.6841    25.6455    4.40000         57 0.0000e+00
      29942 166.570886     -0.355      8.052    23.1519   5.414567     3.4764      8.000 1.5411e-01    23.1503    37.3135  1025.6799    25.6456    4.39878         60 0.0000e+00
      29995 166.570912     -0.475      7.046    23.1648   5.416054     3.4747      7.000 1.4988e-01    23.1634    37.3145  1025.6725    25.6425    4.39449         46 0.0000e+00
      30038 166.570932     -0.556      6.041    23.2038   5.420864     3.4766      6.000 1.5000e-01    23.2026    37.3191  1025.6602    25.6345    4.39391         40 0.0000e+00
      30094 166.570959     -0.419      5.036    23.2608   5.426755     3.4729      5.000 1.4435e-01    23.2598    37.3168  1025.6374    25.6160    4.38330         63 0.0000e+00
      30248 166.571033     -0.194      4.023    23.2552   5.426052     3.4838      4.000 1.3152e-01    23.2544    37.3165  1025.6344    25.6173    4.40039         51 0.0000e+00
      30292 166.571055     -0.549      3.027    23.2539   5.425798     3.4804      3.000 1.2940e-01    23.2532    37.3159  1025.6301    25.6173    4.39448         37 0.0000e+00
      30358 166.571086     -0.332      2.006    23.2121   5.421236     3.4767      2.000 1.1499e-01    23.2117    37.3164  1025.6383    25.6298    4.39121         37 0.0000e+00
      30558 166.571183     -0.442      1.009    23.2734   5.427815     3.4787      1.000 9.2786e-02    23.2732    37.3157  1025.6155    25.6112    4.38930         52 0.0000e+00
