* Sea-Bird SBE 9 Data File:
* FileName = D:\ACEX\brutos\MCTV013.hex
* Software Version Seasave V 7.17
* Temperature SN = 4821
* Conductivity SN = 3367
* Number of Bytes Per Scan = 21
* Number of Voltage Words = 3
* Number of Scans Averaged by the Deck Unit = 1
* System UpLoad Time = Jun 15 2012 10:45:04
** H38 
** NHo Cruzeiro do Sul 
** 222 
** MCTV ACEx 
**   013
**   29 30.186S
**   047 50.440W
**   13/06/2012 13:45Z
**   509
** 9P46375-0882 
**   PESQ. CATARINA CECILIO
# nquan = 16
# nvalues = 383                         
# units = specified
# name 0 = scan: Scan Count
# name 1 = timeJ: Julian Days
# name 2 = dz/dtM: Descent Rate [m/s]
# name 3 = prDM: Pressure, Digiquartz [db]
# name 4 = t090C: Temperature [ITS-90, deg C]
# name 5 = c0S/m: Conductivity [S/m]
# name 6 = sbeox0V: Oxygen Voltage, SBE 43
# name 7 = depSM: Depth [salt water, m]
# name 8 = flSP: Fluorescence, Seapoint
# name 9 = potemp090C: Potential Temperature [ITS-90, deg C]
# name 10 = sal00: Salinity [PSU]
# name 11 = density00: Density [density, Kg/m^3]
# name 12 = sigma-é00: Density [sigma-theta, Kg/m^3]
# name 13 = sbeox0ML/L: Oxygen, SBE 43 [ml/l], WS = 2
# name 14 = nbin: number of scans per bin
# name 15 = flag: flag
# span 0 =      21664,      39991       
# span 1 = 167.458410, 167.467248       
# span 2 =     -1.319,     -0.171       
# span 3 =      2.040,    386.885       
# span 4 =    12.1836,    20.7540       
# span 5 =   4.092202,   5.081629       
# span 6 =     2.3213,     3.4902       
# span 7 =      2.000,    384.000       
# span 8 = 4.6570e-02, 4.3643e-01       
# span 9 =    12.1319,    20.7536       
# span 10 =    35.5573,    36.7169      
# span 11 =  1025.8766,  1028.7134      
# span 12 =    25.8679,    26.9967      
# span 13 =    3.25792,    4.66854      
# span 14 =          7,         63      
# span 15 = 0.0000e+00, 0.0000e+00      
# interval = meters: 1                  
# start_time = Jun 15 2012 10:45:04
# bad_flag = -9.990e-29
# sensor 0 = Frequency  0  temperature, 4821, 05-sep-07
# sensor 1 = Frequency  1  conductivity, 3367, 05-mar-08, cpcor = -9.5700e-08
# sensor 2 = Frequency  2  pressure, 106018, 28-sep-07
# sensor 3 = Extrnl Volt  0  Oxygen, SBE, primary, 0802, 30-nov-07
# sensor 4 = Extrnl Volt  2  Fluorometer, Seapoint, primary
# sensor 5 = Extrnl Volt  4  altimeter
# datcnv_date = Jun 15 2012 11:25:42, 7.17
# datcnv_in = D:\ACEX\brutos\MCTV013.hex D:\ACEX\arqconfig\AC0882mod2.con
# datcnv_skipover = 4214
# filter_date = Jun 15 2012 11:29:06, 7.17
# filter_in = D:\ACEX\dat cnv\MCTV013.cnv
# filter_low_pass_tc_A = 0.150
# filter_low_pass_tc_B = 0.000
# filter_low_pass_A_vars = prDM
# filter_low_pass_B_vars = c0S/m
# alignctd_date = Jun 15 2012 11:29:30, 7.17
# alignctd_in = D:\ACEX\filter\MCTV013.cnv
# alignctd_adv = c0S/m 0.073, sbeox0V 2.000                                                                                                                                                                                          
# wildedit_date = Jun 15 2012 11:30:04, 7.17
# wildedit_in = D:\ACEX\align\MCTV013.cnv
# wildedit_pass1_nstd = 2.0
# wildedit_pass2_nstd = 20.0
# wildedit_pass2_mindelta = 1.000e+002
# wildedit_npoint = 1000
# wildedit_vars = dz/dtM prDM t090C c0S/m sbeox0V flSP
# wildedit_excl_bad_scans = yes
# celltm_date = Jun 15 2012 11:30:35, 7.17
# celltm_in = D:\ACEX\wildedit\MCTV013.cnv
# celltm_alpha = 0.0300, 0.0000
# celltm_tau = 7.0000, 0.0000
# celltm_temp_sensor_use_for_cond = primary, 
# loopedit_date = Jun 15 2012 11:31:51, 7.17
# loopedit_in = D:\ACEX\celltm\MCTV013.cnv
# loopedit_minVelocity = 0.250                                                                                            
# loopedit_surfaceSoak: minDepth = 5.0, maxDepth = 20, useDeckPress = 1                                                   
# loopedit_excl_bad_scans = yes
# Derive_date = Jun 15 2012 11:33:00, 7.17
# Derive_in = D:\ACEX\loopedit\MCTV013.cnv D:\ACEX\arqconfig\AC0882.con
# derive_time_window_docdt = seconds: 2
# binavg_date = Jun 15 2012 11:33:31, 7.17
# binavg_in = D:\ACEX\derive\MCTV013.cnv
# binavg_bintype = meters
# binavg_binsize = 1
# binavg_excl_bad_scans = yes
# binavg_skipover = 0
# binavg_surface_bin = no, min = 0.000, max = 0.000, value = 0.000
# split_date = Jun 15 2012 11:33:57, 7.17
# split_in = D:\ACEX\binavg\MCTV013.cnv
# split_excl_bad_scans = yes
# file_type = ascii
*END*
      21664 167.458410     -0.171    386.885    12.1836   4.092202     2.8091    384.000 4.7793e-02    12.1319    35.5573  1028.7134    26.9967    4.35268         57 0.0000e+00
      22786 167.458951     -0.188    385.871    12.3473   4.110653     2.8200    383.000 4.8031e-02    12.2953    35.5815  1028.6946    26.9837    4.35943         54 0.0000e+00
      23920 167.459498     -0.250    384.868    12.4219   4.119343     2.8252    382.000 4.7821e-02    12.3699    35.5954  1028.6858    26.9799    4.36261         38 0.0000e+00
      24139 167.459603     -0.238    383.849    12.4546   4.123059     2.8345    381.000 4.7357e-02    12.4026    35.6009  1028.6788    26.9777    4.37810         42 0.0000e+00
      24178 167.459622     -0.401    382.845    12.5383   4.132322     2.8374    380.000 4.7852e-02    12.4862    35.6115  1028.6655    26.9695    4.37572         44 0.0000e+00
      24248 167.459656     -0.410    381.840    12.5583   4.135071     2.8473    379.000 4.8523e-02    12.5063    35.6196  1028.6632    26.9718    4.39330         27 0.0000e+00
      24300 167.459681     -0.457    380.831    12.5814   4.137459     2.8444    378.000 4.8298e-02    12.5294    35.6212  1028.6553    26.9685    4.38478         43 0.0000e+00
      24364 167.459712     -0.502    379.826    12.5923   4.138658     2.8399    377.000 4.8148e-02    12.5405    35.6229  1028.6498    26.9676    4.37389         35 0.0000e+00
      24472 167.459764     -0.355    378.815    12.6236   4.141689     2.7706    376.000 4.8129e-02    12.5718    35.6229  1028.6390    26.9614    4.22878         43 0.0000e+00
      24547 167.459801     -0.326    377.799    12.6554   4.144254     2.7212    375.000 4.7682e-02    12.6038    35.6180  1028.6241    26.9513    4.12475         39 0.0000e+00
      24590 167.459821     -0.569    376.803    12.6660   4.146518     2.7594    374.000 4.8237e-02    12.6144    35.6302  1028.6269    26.9586    4.20106         34 0.0000e+00
      24643 167.459846     -0.459    375.786    12.6928   4.148162     2.7037    373.000 4.7859e-02    12.6413    35.6212  1028.6100    26.9463    4.08472         63 0.0000e+00
      24737 167.459892     -0.183    374.773    12.6996   4.146717     2.5749    372.000 4.7609e-02    12.6482    35.6013  1028.5887    26.9295    3.82130         39 0.0000e+00
      24775 167.459910     -0.646    373.778    12.7066   4.151189     2.6876    371.000 4.7939e-02    12.6553    35.6381  1028.6113    26.9567    4.04925         30 0.0000e+00
      24826 167.459935     -0.485    372.757    12.7093   4.150746     2.6998    370.000 4.8118e-02    12.6581    35.6318  1028.6013    26.9512    4.07355         55 0.0000e+00
      24880 167.459961     -0.481    371.762    12.7110   4.151034     2.6801    369.000 4.7995e-02    12.6600    35.6333  1028.5977    26.9520    4.03262         49 0.0000e+00
      24942 167.459991     -0.353    370.746    12.7134   4.150787     2.6440    368.000 4.7449e-02    12.6625    35.6291  1028.5895    26.9482    3.95844         45 0.0000e+00
      25056 167.460046     -0.272    369.744    12.7177   4.150680     2.5384    367.000 4.7275e-02    12.6669    35.6245  1028.5806    26.9437    3.74253         45 0.0000e+00
      25174 167.460103     -0.225    368.722    12.7510   4.154445     2.6710    366.000 4.7381e-02    12.7003    35.6297  1028.5732    26.9411    4.00928         39 0.0000e+00
      25219 167.460124     -0.598    367.726    12.7906   4.160799     2.7437    365.000 4.7556e-02    12.7399    35.6537  1028.5792    26.9519    4.15285         30 0.0000e+00
      25299 167.460163     -0.478    366.739    12.8035   4.161798     2.7337    364.000 4.8039e-02    12.7529    35.6516  1028.5705    26.9476    4.13078         36 0.0000e+00
      25408 167.460216     -0.286    365.698    12.8228   4.164316     2.8182    363.000 4.7639e-02    12.7723    35.6580  1028.5668    26.9487    4.30018         47 0.0000e+00
      25493 167.460256     -0.294    364.700    12.8501   4.166632     2.7900    362.000 4.8443e-02    12.7997    35.6549  1028.5544    26.9408    4.24012         38 0.0000e+00
      25557 167.460288     -0.430    363.718    12.8559   4.167444     2.7385    361.000 4.8367e-02    12.8056    35.6576  1028.5509    26.9417    4.13440         34 0.0000e+00
      25681 167.460347     -0.233    362.685    12.8996   4.171750     2.7281    360.000 4.6799e-02    12.8493    35.6581  1028.5377    26.9333    4.10922         36 0.0000e+00
      25729 167.460370     -0.538    361.679    12.9069   4.172838     2.7526    359.000 4.8492e-02    12.8567    35.6621  1028.5348    26.9349    4.15745         30 0.0000e+00
      25782 167.460396     -0.506    360.680    12.9495   4.176495     2.7613    358.000 4.7995e-02    12.8994    35.6574  1028.5178    26.9227    4.17126         43 0.0000e+00
      25877 167.460442     -0.386    359.684    12.9877   4.180235     2.6635    357.000 4.7524e-02    12.9376    35.6576  1028.5057    26.9152    3.96956         39 0.0000e+00
      25929 167.460467     -0.482    358.644    13.0146   4.183612     2.6876    356.000 4.7469e-02    12.9646    35.6650  1028.5012    26.9155    4.01534         50 0.0000e+00
      25973 167.460488     -0.564    357.641    13.0297   4.183773     2.6171    355.000 4.7742e-02    12.9799    35.6527  1028.4841    26.9029    3.87140         40 0.0000e+00
      26034 167.460517     -0.360    356.629    13.0522   4.182098     2.5454    354.000 4.7830e-02    13.0025    35.6161  1028.4466    26.8699    3.72517         54 0.0000e+00
      26097 167.460548     -0.392    355.620    13.0579   4.180550     2.4436    353.000 4.7718e-02    13.0083    35.5964  1028.4257    26.8535    3.51899         55 0.0000e+00
      26149 167.460573     -0.469    354.646    13.0958   4.181149     2.3667    352.000 4.7064e-02    13.0462    35.5671  1028.3908    26.8231    3.36116         41 0.0000e+00
      26238 167.460616     -0.296    353.689    13.1363   4.193004     2.5245    351.000 4.7593e-02    13.0867    35.6423  1028.4362    26.8732    3.67456         24 0.0000e+00
      26289 167.460640     -0.704    352.597    13.1804   4.204703     2.6976    350.000 4.7893e-02    13.1309    35.7127  1028.4765    26.9187    4.01758         36 0.0000e+00
      26519 167.460751     -0.220    351.591    13.2128   4.201439     2.4782    349.000 4.7042e-02    13.1633    35.6518  1028.4182    26.8649    3.57459         51 0.0000e+00
      27150 167.461056     -0.463    350.593    13.2168   4.202387     2.3213    348.000 4.7037e-02    13.1674    35.6574  1028.4173    26.8684    3.25792         30 0.0000e+00
      27092 167.461028     -0.697    349.607    13.2180   4.205235     2.3994    347.000 4.7444e-02    13.1688    35.6838  1028.4330    26.8886    3.41399         34 0.0000e+00
      27145 167.461053     -0.453    348.557    13.2210   4.202464     2.4248    346.000 4.7038e-02    13.1720    35.6551  1028.4055    26.8657    3.46512         50 0.0000e+00
      27190 167.461075     -0.530    347.573    13.2606   4.205368     2.4506    345.000 4.7642e-02    13.2116    35.6460  1028.3858    26.8505    3.51377         36 0.0000e+00
      27223 167.461091     -0.708    346.554    13.2837   4.208247     2.4862    344.000 4.7916e-02    13.2347    35.6522  1028.3813    26.8506    3.58304         29 0.0000e+00
      27258 167.461108     -0.728    345.538    13.2936   4.208223     2.5011    343.000 4.8242e-02    13.2448    35.6431  1028.3677    26.8415    3.61196         33 0.0000e+00
      27295 167.461126     -0.597    344.574    13.3096   4.210156     2.5652    342.000 4.7072e-02    13.2609    35.6469  1028.3630    26.8412    3.73891         18 0.0000e+00
      27323 167.461139     -0.811    343.550    13.3299   4.220717     2.6688    341.000 4.7631e-02    13.2812    35.7284  1028.4171    26.9001    3.94257         38 0.0000e+00
      27368 167.461161     -0.515    342.505    13.3346   4.219611     2.6459    340.000 4.7766e-02    13.2861    35.7139  1028.4003    26.8879    3.89618         36 0.0000e+00
      27404 167.461178     -0.643    341.506    13.3415   4.219290     2.5722    339.000 4.8222e-02    13.2932    35.7048  1028.3873    26.8794    3.74769         30 0.0000e+00
      27435 167.461193     -0.750    340.524    13.3587   4.219001     2.5279    338.000 4.8095e-02    13.3104    35.6864  1028.3652    26.8617    3.65760         28 0.0000e+00
      27474 167.461212     -0.661    339.491    13.3751   4.218937     2.4800    337.000 4.7324e-02    13.3270    35.6709  1028.3451    26.8462    3.56033         39 0.0000e+00
      27522 167.461235     -0.482    338.515    13.3890   4.218543     2.4225    336.000 4.7117e-02    13.3410    35.6546  1028.3253    26.8307    3.44408         40 0.0000e+00
      27568 167.461257     -0.535    337.495    13.4016   4.219890     2.3985    335.000 4.7483e-02    13.3537    35.6560  1028.3192    26.8292    3.39484         36 0.0000e+00
      27605 167.461275     -0.646    336.473    13.4133   4.223155     2.4151    334.000 4.7398e-02    13.3655    35.6764  1028.3279    26.8425    3.42634         23 0.0000e+00
      27636 167.461290     -0.757    335.483    13.4280   4.224398     2.4627    333.000 4.7271e-02    13.3803    35.6748  1028.3192    26.8383    3.52008         32 0.0000e+00
      27678 167.461310     -0.568    334.450    13.4554   4.224654     2.5016    332.000 4.7632e-02    13.4078    35.6521  1028.2913    26.8150    3.59585         30 0.0000e+00
      27707 167.461324     -0.722    333.482    13.4717   4.235548     2.6534    331.000 4.7807e-02    13.4242    35.7402  1028.3515    26.8798    3.89513         22 0.0000e+00
      27747 167.461343     -0.670    332.436    13.4826   4.237073     2.6976    330.000 4.7819e-02    13.4352    35.7448  1028.3482    26.8812    3.98180         49 0.0000e+00
      27791 167.461365     -0.493    331.443    13.4930   4.238678     2.7560    329.000 4.7800e-02    13.4457    35.7507  1028.3462    26.8836    4.09673         27 0.0000e+00
      27818 167.461378     -0.830    330.434    13.5156   4.243265     2.8137    328.000 4.7778e-02    13.4684    35.7732  1028.3542    26.8963    4.20885         23 0.0000e+00
      27850 167.461393     -0.851    329.413    13.5318   4.243558     2.7888    327.000 4.7404e-02    13.4848    35.7613  1028.3370    26.8837    4.15751         24 0.0000e+00
      27899 167.461417     -0.449    328.412    13.5550   4.242107     2.7271    326.000 4.8182e-02    13.5080    35.7264  1028.3008    26.8518    4.03321         37 0.0000e+00
      27931 167.461432     -0.691    327.408    13.5851   4.251592     2.8293    325.000 4.7805e-02    13.5382    35.7881  1028.3376    26.8934    4.23193         25 0.0000e+00
      27958 167.461445     -0.865    326.401    13.6149   4.254241     2.8349    324.000 4.8079e-02    13.5680    35.7856  1028.3248    26.8852    4.24001         26 0.0000e+00
      27997 167.461464     -0.690    325.373    13.6227   4.252267     2.7492    323.000 4.7333e-02    13.5760    35.7602  1028.2990    26.8639    4.06921         45 0.0000e+00
      28052 167.461491     -0.393    324.383    13.6313   4.250441     2.6101    322.000 4.8044e-02    13.5848    35.7353  1028.2735    26.8428    3.79221         46 0.0000e+00
      28086 167.461507     -0.609    323.406    13.6381   4.255412     2.7081    321.000 4.8043e-02    13.5916    35.7762  1028.2993    26.8730    3.98482         23 0.0000e+00
      28113 167.461520     -0.918    322.355    13.6444   4.257675     2.8115    320.000 4.7776e-02    13.5980    35.7921  1028.3056    26.8840    4.18857         25 0.0000e+00
      28157 167.461541     -0.568    321.338    13.6612   4.259528     2.8715    319.000 4.7113e-02    13.6150    35.7943  1028.2991    26.8821    4.30560         44 0.0000e+00
      28200 167.461562     -0.539    320.392    13.6698   4.259899     2.8429    318.000 4.8218e-02    13.6237    35.7901  1028.2899    26.8771    4.24782         35 0.0000e+00
      28257 167.461589     -0.424    319.330    13.6781   4.258556     2.7299    317.000 4.7333e-02    13.6321    35.7702  1028.2681    26.8600    4.02285         46 0.0000e+00
      28300 167.461610     -0.501    318.377    13.6845   4.260218     2.7622    316.000 4.7153e-02    13.6387    35.7802  1028.2702    26.8663    4.08551         21 0.0000e+00
      28320 167.461620     -0.870    317.441    13.6920   4.263673     2.8353    315.000 4.8189e-02    13.6462    35.8061  1028.2845    26.8848    4.22873          8 0.0000e+00
      28340 167.461630     -1.190    316.394    13.6999   4.264373     2.8641    314.000 4.7414e-02    13.6544    35.8057  1028.2778    26.8828    4.28462         18 0.0000e+00
      28370 167.461644     -1.030    315.344    13.7091   4.264340     2.8080    313.000 4.7328e-02    13.6636    35.7973  1028.2647    26.8744    4.17228         33 0.0000e+00
      28436 167.461676     -0.271    314.324    13.7163   4.263103     2.7014    312.000 4.8196e-02    13.6710    35.7794  1028.2449    26.8590    3.96044         30 0.0000e+00
      28468 167.461691     -0.689    313.306    13.7311   4.267260     2.7826    311.000 4.8405e-02    13.6859    35.8051  1028.2570    26.8757    4.11888         27 0.0000e+00
      28508 167.461710     -0.660    312.286    13.7411   4.266775     2.7352    310.000 4.7229e-02    13.6960    35.7916  1028.2399    26.8632    4.02401         38 0.0000e+00
      28543 167.461727     -0.600    311.334    13.7677   4.269353     2.7768    309.000 4.6893e-02    13.7227    35.7914  1028.2298    26.8574    4.10348         24 0.0000e+00
      28570 167.461740     -0.857    310.297    13.7950   4.275038     2.8396    308.000 4.7446e-02    13.7501    35.8197  1028.2413    26.8736    4.22421         23 0.0000e+00
      28601 167.461755     -0.867    309.251    13.8181   4.275556     2.8048    307.000 4.7042e-02    13.7733    35.8035  1028.2191    26.8562    4.15328         37 0.0000e+00
      28658 167.461783     -0.385    308.239    13.8470   4.273465     2.6713    306.000 4.7402e-02    13.8023    35.7574  1028.1728    26.8144    3.88810         41 0.0000e+00
      28704 167.461805     -0.508    307.217    13.8914   4.278147     2.7341    305.000 4.7604e-02    13.8468    35.7603  1028.1610    26.8073    4.00786         22 0.0000e+00
      28732 167.461818     -0.768    306.265    13.9152   4.288853     2.8629    304.000 4.7550e-02    13.8706    35.8388  1028.2122    26.8630    4.25715         35 0.0000e+00
      28776 167.461840     -0.490    305.221    13.9301   4.290520     2.8789    303.000 4.9905e-02    13.8856    35.8409  1028.2060    26.8615    4.28690         25 0.0000e+00
      28805 167.461854     -0.723    304.249    13.9484   4.288552     2.7908    302.000 4.7963e-02    13.9041    35.8059  1028.1707    26.8305    4.11214         22 0.0000e+00
      28841 167.461871     -0.718    303.210    13.9559   4.287336     2.6982    301.000 4.8475e-02    13.9117    35.7879  1028.1506    26.8150    3.92931         40 0.0000e+00
      28879 167.461889     -0.628    302.186    13.9653   4.289331     2.6486    300.000 4.7724e-02    13.9212    35.7983  1028.1521    26.8210    3.83020         28 0.0000e+00
      28908 167.461903     -0.781    301.193    13.9863   4.289911     2.6426    299.000 4.8155e-02    13.9423    35.7847  1028.1326    26.8060    3.81648         29 0.0000e+00
      28946 167.461922     -0.688    300.179    13.9997   4.289167     2.6012    298.000 4.8085e-02    13.9559    35.7656  1028.1105    26.7884    3.73415         45 0.0000e+00
      28997 167.461946     -0.441    299.184    14.0117   4.292260     2.5508    297.000 4.6785e-02    13.9680    35.7838  1028.1175    26.7999    3.63334         39 0.0000e+00
      29047 167.461970     -0.490    298.176    14.0145   4.289713     2.5150    296.000 4.7050e-02    13.9710    35.7578  1028.0924    26.7792    3.56284         46 0.0000e+00
      29100 167.461996     -0.423    297.212    14.0225   4.289845     2.4937    295.000 4.7204e-02    13.9791    35.7520  1028.0820    26.7730    3.52014         34 0.0000e+00
      29130 167.462011     -0.701    296.231    14.0335   4.294800     2.5219    294.000 4.6686e-02    13.9902    35.7884  1028.1033    26.7988    3.57341         14 0.0000e+00
      29156 167.462023     -0.898    295.231    14.0580   4.296165     2.5659    293.000 4.7940e-02    14.0148    35.7788  1028.0862    26.7862    3.65780         22 0.0000e+00
      29199 167.462044     -0.638    294.169    14.0857   4.293396     2.5497    292.000 4.6773e-02    14.0426    35.7278  1028.0361    26.7408    3.62463         48 0.0000e+00
      29257 167.462072     -0.414    293.147    14.1107   4.293025     2.4897    291.000 4.7091e-02    14.0677    35.7016  1028.0060    26.7152    3.50533         45 0.0000e+00
      29296 167.462091     -0.516    292.274    14.1230   4.295475     2.4551    290.000 4.8102e-02    14.0801    35.7134  1028.0086    26.7217    3.43589         15 0.0000e+00
      29321 167.462103     -0.786    291.269    14.1356   4.303035     2.4922    289.000 4.7713e-02    14.0928    35.7725  1028.0469    26.7647    3.50605         23 0.0000e+00
      29352 167.462118     -0.917    290.131    14.1570   4.305236     2.5371    288.000 4.7712e-02    14.1144    35.7736  1028.0381    26.7610    3.59182         26 0.0000e+00
      29381 167.462132     -0.823    289.154    14.1778   4.306510     2.5501    287.000 4.7758e-02    14.1352    35.7667  1028.0239    26.7512    3.61556         18 0.0000e+00
      29420 167.462151     -0.680    288.098    14.1925   4.307793     2.5457    286.000 4.8005e-02    14.1500    35.7655  1028.0151    26.7470    3.60533         42 0.0000e+00
      29462 167.462170     -0.559    287.101    14.2041   4.309659     2.5386    285.000 4.7920e-02    14.1618    35.7725  1028.0135    26.7500    3.59011         28 0.0000e+00
      29495 167.462187     -0.704    286.092    14.2156   4.314096     2.5549    284.000 4.7188e-02    14.1734    35.8035  1028.0304    26.7714    3.61979         21 0.0000e+00
      29538 167.462207     -0.586    285.074    14.2231   4.313535     2.5756    283.000 4.7626e-02    14.1810    35.7917  1028.0153    26.7607    3.65948         28 0.0000e+00
      29576 167.462225     -0.620    284.081    14.2214   4.315259     2.5566    282.000 4.7577e-02    14.1795    35.8098  1028.0252    26.7750    3.62159         29 0.0000e+00
      29613 167.462244     -0.627    283.109    14.2270   4.316211     2.5386    281.000 4.8072e-02    14.1852    35.8138  1028.0227    26.7769    3.58548         32 0.0000e+00
      29668 167.462270     -0.428    282.053    14.2310   4.310962     2.4953    280.000 4.6833e-02    14.1894    35.7618  1027.9771    26.7358    3.50133         37 0.0000e+00
      29712 167.462291     -0.531    281.097    14.2368   4.317540     2.5265    279.000 4.8053e-02    14.1953    35.8179  1028.0149    26.7779    3.56020         47 0.0000e+00
      29762 167.462315     -0.435    280.093    14.2426   4.317445     2.5586    278.000 5.0923e-02    14.2012    35.8121  1028.0047    26.7721    3.62216         24 0.0000e+00
      29790 167.462329     -0.748    279.050    14.2458   4.322331     2.5809    277.000 4.6858e-02    14.2045    35.8550  1028.0324    26.8046    3.66395         17 0.0000e+00
      29806 167.462337     -0.976    278.303    14.2488   4.323395     2.6805    276.000 4.7764e-02    14.2077    35.8624  1028.0342    26.8096    3.85733         10 0.0000e+00
      29844 167.462355     -0.879    277.059    14.2478   4.324676     2.7392    275.000 4.6570e-02    14.2069    35.8757  1028.0392    26.8201    3.97076         34 0.0000e+00
      29904 167.462384     -0.195    276.187    14.2429   4.322267     2.6662    274.000 4.7591e-02    14.2021    35.8583  1028.0230    26.8076    3.82880         19 0.0000e+00
      29943 167.462403     -0.636    275.095    14.2566   4.322305     2.5715    273.000 4.7479e-02    14.2159    35.8463  1028.0060    26.7955    3.64295         25 0.0000e+00
      30017 167.462438     -0.219    273.999    14.2991   4.322770     2.6247    272.000 4.6916e-02    14.2585    35.8117  1027.9651    26.7596    3.74382         19 0.0000e+00
      30029 167.462444     -0.801    273.118    14.3083   4.333026     2.7903    271.000 4.8625e-02    14.2678    35.8988  1028.0263    26.8249    4.06281         16 0.0000e+00
      30051 167.462455     -1.156    272.036    14.3274   4.334293     2.8327    270.000 4.7789e-02    14.2871    35.8932  1028.0130    26.8164    4.14323         19 0.0000e+00
      30077 167.462467     -1.020    271.003    14.3613   4.335338     2.8277    269.000 4.8618e-02    14.3210    35.8719  1027.9846    26.7927    4.13077         17 0.0000e+00
      30104 167.462480     -0.907    270.045    14.3734   4.336264     2.7845    268.000 4.6923e-02    14.3333    35.8697  1027.9760    26.7883    4.04531         24 0.0000e+00
      30138 167.462497     -0.816    268.934    14.3914   4.336558     2.7432    267.000 4.7301e-02    14.3514    35.8561  1027.9567    26.7739    3.96348         37 0.0000e+00
      30179 167.462517     -0.537    268.014    14.4161   4.342483     2.8119    266.000 4.7294e-02    14.3762    35.8885  1027.9722    26.7936    4.09367         30 0.0000e+00
      30218 167.462535     -0.665    266.925    14.4322   4.344462     2.8535    265.000 4.8470e-02    14.3924    35.8924  1027.9668    26.7931    4.17234         28 0.0000e+00
      30252 167.462552     -0.690    265.952    14.4836   4.347838     2.8670    264.000 4.7859e-02    14.4439    35.8764  1027.9388    26.7697    4.19403         20 0.0000e+00
      30277 167.462564     -0.770    265.076    14.4942   4.352177     2.8777    263.000 4.6729e-02    14.4546    35.9071  1027.9563    26.7911    4.21260         16 0.0000e+00
      30301 167.462575     -0.919    264.091    14.5052   4.353370     2.8923    262.000 4.7344e-02    14.4657    35.9084  1027.9505    26.7896    4.23948         16 0.0000e+00
      30333 167.462590     -0.940    262.915    14.5078   4.354984     2.9184    261.000 4.7549e-02    14.4685    35.9213  1027.9547    26.7990    4.28860         31 0.0000e+00
      30362 167.462605     -0.835    261.900    14.5096   4.355435     2.9416    260.000 4.8038e-02    14.4704    35.9243  1027.9521    26.8009    4.33274         25 0.0000e+00
      30394 167.462620     -0.782    260.900    14.5339   4.358377     2.9619    259.000 4.7890e-02    14.4948    35.9294  1027.9462    26.7995    4.36929         27 0.0000e+00
      30427 167.462636     -0.660    260.010    14.5674   4.362678     2.9725    258.000 4.7841e-02    14.5284    35.9385  1027.9419    26.7993    4.38605         16 0.0000e+00
      30449 167.462647     -0.731    259.189    14.6186   4.368184     2.9932    257.000 4.8611e-02    14.5796    35.9422  1027.9298    26.7910    4.42112         11 0.0000e+00
      30475 167.462659     -1.049    257.947    14.6602   4.374660     3.0002    256.000 4.7995e-02    14.6213    35.9640  1027.9318    26.7988    4.42965         16 0.0000e+00
      30502 167.462672     -1.056    256.884    14.6716   4.375016     2.9798    255.000 4.8293e-02    14.6328    35.9571  1027.9193    26.7909    4.38895         29 0.0000e+00
      30537 167.462689     -0.627    255.946    14.6766   4.376185     2.9925    254.000 4.7690e-02    14.6380    35.9636  1027.9191    26.7949    4.41214         19 0.0000e+00
      30564 167.462702     -0.773    254.928    14.6775   4.376289     3.0063    253.000 4.8251e-02    14.6390    35.9642  1027.9148    26.7951    4.43804         17 0.0000e+00
      30586 167.462713     -1.090    253.838    14.6765   4.376337     3.0063    252.000 4.9444e-02    14.6383    35.9660  1027.9116    26.7966    4.43743         16 0.0000e+00
      30617 167.462728     -0.882    252.863    14.6258   4.370442     3.0068    251.000 4.8327e-02    14.5878    35.9589  1027.9131    26.8022    4.44242         37 0.0000e+00
      30662 167.462750     -0.491    251.823    14.5669   4.360954     3.0077    250.000 4.7476e-02    14.5292    35.9263  1027.8965    26.7898    4.44953         27 0.0000e+00
      30688 167.462762     -0.680    250.928    14.5503   4.359324     3.0110    249.000 4.7729e-02    14.5128    35.9270  1027.8967    26.7938    4.45669         14 0.0000e+00
      30710 167.462773     -1.006    249.869    14.4478   4.344874     2.9976    248.000 4.7680e-02    14.4105    35.8889  1027.8853    26.7865    4.44010         19 0.0000e+00
      30733 167.462784     -1.088    248.864    14.3756   4.335141     2.9879    247.000 4.8213e-02    14.3387    35.8660  1027.8791    26.7843    4.42775         21 0.0000e+00
      30761 167.462797     -0.952    247.842    14.3680   4.333079     2.9824    246.000 4.8292e-02    14.3312    35.8543  1027.8673    26.7769    4.41748         20 0.0000e+00
      30785 167.462809     -0.831    247.002    14.3653   4.332443     2.9781    245.000 4.7428e-02    14.3287    35.8513  1027.8617    26.7751    4.40886         13 0.0000e+00
      30817 167.462824     -0.865    245.890    14.3640   4.332068     2.9759    244.000 4.8378e-02    14.3276    35.8495  1027.8557    26.7739    4.40414         31 0.0000e+00
      30863 167.462846     -0.574    244.721    14.3776   4.333107     2.9910    243.000 4.7791e-02    14.3413    35.8470  1027.8457    26.7691    4.43152         31 0.0000e+00
      30895 167.462862     -0.579    243.868    14.3832   4.333715     2.9917    242.000 4.8425e-02    14.3470    35.8478  1027.8413    26.7684    4.43182         20 0.0000e+00
      30915 167.462871     -0.822    243.055    14.3905   4.334476     2.9822    241.000 4.8126e-02    14.3544    35.8484  1027.8366    26.7674    4.41244         12 0.0000e+00
      30943 167.462885     -0.968    241.982    14.4133   4.336730     2.9814    240.000 4.7115e-02    14.3773    35.8487  1027.8270    26.7626    4.40820         12 0.0000e+00
      30979 167.462902     -0.840    240.763    14.4339   4.339364     2.9856    239.000 4.6994e-02    14.3981    35.8545  1027.8216    26.7626    4.41372         19 0.0000e+00
      31007 167.462916     -0.795    239.827    14.4461   4.340609     2.9867    238.000 4.7156e-02    14.4104    35.8551  1027.8152    26.7604    4.41427         23 0.0000e+00
      31045 167.462934     -0.663    238.848    14.4629   4.342381     2.9849    237.000 4.7781e-02    14.4273    35.8564  1027.8083    26.7578    4.40854         33 0.0000e+00
      31094 167.462958     -0.457    237.824    14.4771   4.343783     2.9841    236.000 4.8112e-02    14.4416    35.8566  1027.8008    26.7549    4.40524         22 0.0000e+00
      31124 167.462972     -0.705    236.826    14.4828   4.344497     2.9840    235.000 4.8580e-02    14.4475    35.8584  1027.7964    26.7550    4.40389         22 0.0000e+00
      31158 167.462989     -0.803    235.757    14.5168   4.348045     2.9787    234.000 4.8489e-02    14.4816    35.8601  1027.7856    26.7489    4.39016         28 0.0000e+00
      31225 167.463021     -0.364    234.710    14.5316   4.349561     2.9752    233.000 4.8136e-02    14.4965    35.8609  1027.7783    26.7463    4.38152         36 0.0000e+00
      31262 167.463039     -0.601    233.818    14.5353   4.349944     2.9734    232.000 4.8620e-02    14.5003    35.8614  1027.7739    26.7458    4.37705         15 0.0000e+00
      31322 167.463068     -0.372    232.890    14.5521   4.351866     2.9751    231.000 4.7679e-02    14.5172    35.8640  1027.7681    26.7442    4.37826         16 0.0000e+00
      31374 167.463093     -0.478    231.868    14.5709   4.354122     2.9747    230.000 4.7782e-02    14.5362    35.8679  1027.7624    26.7430    4.37529         14 0.0000e+00
      31407 167.463109     -0.801    230.715    14.6186   4.359915     2.9726    229.000 4.7478e-02    14.5840    35.8777  1027.7543    26.7402    4.36621         31 0.0000e+00
      31462 167.463135     -0.396    229.766    14.6505   4.363926     2.9747    228.000 4.8148e-02    14.6160    35.8856  1027.7491    26.7394    4.36682         21 0.0000e+00
      31491 167.463149     -0.837    228.674    14.6717   4.366440     2.9768    227.000 4.9004e-02    14.6372    35.8897  1027.7428    26.7379    4.36814         28 0.0000e+00
      31555 167.463180     -0.262    227.610    14.7636   4.377690     2.9850    226.000 4.8774e-02    14.7292    35.9088  1027.7324    26.7326    4.37497         31 0.0000e+00
      31585 167.463195     -0.590    226.683    14.8105   4.384554     2.9921    225.000 4.9064e-02    14.7761    35.9290  1027.7334    26.7379    4.38348         18 0.0000e+00
      31607 167.463205     -1.004    225.657    14.9678   4.403245     2.9997    224.000 4.7043e-02    14.9334    35.9558  1027.7142    26.7239    4.38337         15 0.0000e+00
      31641 167.463222     -0.860    224.631    14.9682   4.402902     3.0105    223.000 4.8201e-02    14.9339    35.9527  1027.7073    26.7215    4.40341         35 0.0000e+00
      31684 167.463242     -0.485    223.698    14.9692   4.403075     3.0159    222.000 4.8937e-02    14.9350    35.9538  1027.7038    26.7220    4.41292         25 0.0000e+00
      31731 167.463265     -0.528    222.643    14.9793   4.404482     3.0191    221.000 4.8892e-02    14.9453    35.9577  1027.6999    26.7228    4.41753         48 0.0000e+00
      31782 167.463289     -0.462    221.563    15.0574   4.414484     3.0269    220.000 4.8772e-02    15.0235    35.9778  1027.6929    26.7209    4.42452         25 0.0000e+00
      31801 167.463298     -0.802    220.753    15.1274   4.423406     3.0337    219.000 4.8654e-02    15.0935    35.9951  1027.6869    26.7188    4.43038         14 0.0000e+00
      31835 167.463315     -0.814    219.656    15.2282   4.435340     3.0440    218.000 4.9452e-02    15.1943    36.0116  1027.6720    26.7090    4.44024         27 0.0000e+00
      31869 167.463332     -0.714    218.581    15.2485   4.438213     3.0486    217.000 5.0604e-02    15.2147    36.0196  1027.6688    26.7106    4.44630         23 0.0000e+00
      31888 167.463341     -0.874    217.799    15.2746   4.441299     3.0512    216.000 4.9874e-02    15.2409    36.0240  1027.6627    26.7082    4.44842          9 0.0000e+00
      31915 167.463354     -1.005    216.761    15.3082   4.445574     3.0559    215.000 5.0229e-02    15.2746    36.0324  1027.6570    26.7071    4.45358         11 0.0000e+00
      31989 167.463389     -0.307    215.562    15.3576   4.451703     3.0622    214.000 4.9441e-02    15.3241    36.0433  1027.6489    26.7044    4.46025         33 0.0000e+00
      32022 167.463405     -0.671    214.527    15.3688   4.453249     3.0657    213.000 5.1260e-02    15.3354    36.0474  1027.6449    26.7050    4.46525         18 0.0000e+00
      32044 167.463416     -1.020    213.542    15.3914   4.456060     3.0686    212.000 4.8745e-02    15.3582    36.0526  1027.6394    26.7039    4.46798         22 0.0000e+00
      32091 167.463439     -0.414    212.750    15.4186   4.459077     3.0702    211.000 5.0759e-02    15.3855    36.0553  1027.6318    26.6999    4.46821         14 0.0000e+00
      32131 167.463458     -0.598    211.590    15.4279   4.460350     3.0700    210.000 4.8409e-02    15.3950    36.0588  1027.6272    26.7004    4.46610         13 0.0000e+00
      32154 167.463469     -0.999    210.574    15.4492   4.462585     3.0720    209.000 4.9691e-02    15.4163    36.0600  1027.6188    26.6965    4.46747         26 0.0000e+00
      32219 167.463500     -0.298    209.552    15.4639   4.464084     3.0751    208.000 4.9525e-02    15.4312    36.0605  1027.6113    26.6935    4.47147         30 0.0000e+00
      32251 167.463516     -0.694    208.557    15.4682   4.464549     3.0773    207.000 5.1566e-02    15.4357    36.0611  1027.6064    26.6930    4.47450         18 0.0000e+00
      32285 167.463532     -0.853    207.525    15.4754   4.465335     3.0739    206.000 4.9788e-02    15.4430    36.0620  1027.6009    26.6921    4.46687         23 0.0000e+00
      32330 167.463554     -0.522    206.539    15.4983   4.467760     3.0722    205.000 5.0058e-02    15.4660    36.0635  1027.5924    26.6880    4.46108         36 0.0000e+00
      32372 167.463574     -0.605    205.506    15.5124   4.469340     3.0717    204.000 4.9931e-02    15.4803    36.0652  1027.5860    26.6861    4.45824         30 0.0000e+00
      32423 167.463598     -0.432    204.610    15.5278   4.470843     3.0715    203.000 5.0693e-02    15.4958    36.0651  1027.5784    26.6825    4.45613         18 0.0000e+00
      32506 167.463638     -0.332    203.448    15.5311   4.471041     3.0673    202.000 5.0650e-02    15.4993    36.0643  1027.5719    26.6811    4.44728         48 0.0000e+00
      32547 167.463658     -0.573    202.436    15.5323   4.471170     3.0654    201.000 5.0855e-02    15.5006    36.0648  1027.5676    26.6812    4.44291         22 0.0000e+00
      32593 167.463680     -0.552    201.427    15.5458   4.472677     3.0671    200.000 4.9898e-02    15.5143    36.0665  1027.5613    26.6794    4.44428         28 0.0000e+00
      32657 167.463711     -0.372    200.505    15.5607   4.474349     3.0656    199.000 5.1346e-02    15.5293    36.0683  1027.5552    26.6774    4.43959         34 0.0000e+00
      32734 167.463749     -0.338    199.400    15.5787   4.476359     3.0678    198.000 4.9922e-02    15.5475    36.0704  1027.5478    26.6749    4.44157         27 0.0000e+00
      32753 167.463758     -0.857    198.434    15.5941   4.478320     3.0681    197.000 5.0798e-02    15.5629    36.0745  1027.5432    26.6745    4.44002         14 0.0000e+00
      32780 167.463770     -1.075    197.393    15.6225   4.481499     3.0682    196.000 5.1805e-02    15.5915    36.0776  1027.5345    26.6704    4.43719         24 0.0000e+00
      32840 167.463799     -0.362    196.504    15.6495   4.484336     3.0699    195.000 5.2379e-02    15.6186    36.0788  1027.5253    26.6652    4.43740         29 0.0000e+00
      32881 167.463820     -0.636    195.420    15.6574   4.485347     3.0721    194.000 5.0854e-02    15.6267    36.0811  1027.5204    26.6652    4.44027         20 0.0000e+00
      32908 167.463832     -0.835    194.525    15.6702   4.486793     3.0739    193.000 5.2017e-02    15.6395    36.0829  1027.5149    26.6636    4.44185         22 0.0000e+00
      32943 167.463849     -0.626    193.607    15.6804   4.488076     3.0743    192.000 5.2841e-02    15.6499    36.0855  1027.5106    26.6633    4.44108         22 0.0000e+00
      32971 167.463863     -0.804    192.550    15.7193   4.492772     3.0775    191.000 5.2854e-02    15.6889    36.0927  1027.5024    26.6599    4.44310         14 0.0000e+00
      33000 167.463877     -0.999    191.394    15.7496   4.496101     3.0771    190.000 5.2420e-02    15.7194    36.0954  1027.4924    26.6550    4.43902         23 0.0000e+00
      33046 167.463899     -0.538    190.343    15.7785   4.499532     3.0774    189.000 5.0920e-02    15.7484    36.1003  1027.4849    26.6522    4.43630         42 0.0000e+00
      33086 167.463918     -0.507    189.364    15.7993   4.501900     3.0756    188.000 5.2453e-02    15.7694    36.1030  1027.4778    26.6495    4.43044         16 0.0000e+00
      33105 167.463928     -0.924    188.412    15.8224   4.504906     3.0762    187.000 5.3001e-02    15.7925    36.1094  1027.4732    26.6491    4.42897         17 0.0000e+00
      33146 167.463947     -0.680    187.405    15.8830   4.511662     3.0749    186.000 5.1886e-02    15.8532    36.1151  1027.4591    26.6396    4.42059         29 0.0000e+00
      33190 167.463968     -0.539    186.405    15.8887   4.512298     3.0742    185.000 5.5660e-02    15.8591    36.1160  1027.4540    26.6389    4.41828         31 0.0000e+00
      33222 167.463984     -0.777    185.335    15.9051   4.513981     3.0740    184.000 5.5516e-02    15.8756    36.1166  1027.4460    26.6356    4.41578         22 0.0000e+00
      33250 167.463997     -0.733    184.523    15.9189   4.515650     3.0743    183.000 5.4189e-02    15.8896    36.1193  1027.4412    26.6345    4.41458         20 0.0000e+00
      33286 167.464015     -0.767    183.390    15.9371   4.517562     3.0794    182.000 5.9086e-02    15.9079    36.1203  1027.4328    26.6310    4.42187         17 0.0000e+00
      33315 167.464029     -0.772    182.415    15.9445   4.518390     3.0803    181.000 5.6486e-02    15.9155    36.1214  1027.4276    26.6301    4.42234         23 0.0000e+00
      33344 167.464043     -0.842    181.365    15.9575   4.519999     3.0802    180.000 5.7070e-02    15.9286    36.1244  1027.4223    26.6294    4.42036         12 0.0000e+00
      33364 167.464052     -1.020    180.369    15.9792   4.522670     3.0832    179.000 5.6595e-02    15.9504    36.1290  1027.4163    26.6279    4.42346         16 0.0000e+00
      33385 167.464062     -1.177    179.329    16.0083   4.525802     3.0846    178.000 5.9783e-02    15.9797    36.1309  1027.4064    26.6226    4.42287         17 0.0000e+00
      33409 167.464074     -1.121    178.340    16.0247   4.527679     3.0849    177.000 5.7864e-02    15.9962    36.1332  1027.4000    26.6206    4.42146         26 0.0000e+00
      33471 167.464104     -0.420    177.302    16.0475   4.530206     3.0895    176.000 5.8253e-02    16.0192    36.1354  1027.3918    26.6170    4.42738         29 0.0000e+00
      33520 167.464127     -0.520    176.228    16.0557   4.531185     3.0913    175.000 5.7585e-02    16.0275    36.1371  1027.3865    26.6164    4.42929         19 0.0000e+00
      33540 167.464137     -0.961    175.279    16.0675   4.532533     3.0909    174.000 6.0819e-02    16.0394    36.1388  1027.3809    26.6149    4.42705         17 0.0000e+00
      33570 167.464152     -0.918    174.321    16.0759   4.533445     3.0914    173.000 5.7013e-02    16.0480    36.1397  1027.3753    26.6136    4.42656         20 0.0000e+00
      33614 167.464173     -0.535    173.348    16.0833   4.534278     3.0942    172.000 6.3571e-02    16.0556    36.1408  1027.3702    26.6127    4.43054         34 0.0000e+00
      33651 167.464191     -0.672    172.308    16.0933   4.535418     3.0957    171.000 6.0872e-02    16.0657    36.1423  1027.3644    26.6115    4.43182         28 0.0000e+00
      33705 167.464217     -0.462    171.235    16.1166   4.537858     3.1040    170.000 6.0885e-02    16.0892    36.1433  1027.3550    26.6069    4.44458         45 0.0000e+00
      33744 167.464235     -0.593    170.233    16.1302   4.539516     3.1070    169.000 6.1088e-02    16.1029    36.1461  1027.3496    26.6059    4.44830         28 0.0000e+00
      33772 167.464249     -0.839    169.184    16.1487   4.541520     3.1094    168.000 6.2104e-02    16.1216    36.1476  1027.3418    26.6027    4.45042         16 0.0000e+00
      33793 167.464259     -0.966    168.357    16.1581   4.542595     3.1090    167.000 6.0912e-02    16.1311    36.1490  1027.3370    26.6015    4.44836         12 0.0000e+00
      33823 167.464274     -0.876    167.342    16.1583   4.542227     3.1109    166.000 6.4743e-02    16.1314    36.1460  1027.3302    26.5991    4.45133         16 0.0000e+00
      33868 167.464295     -0.550    166.344    16.1543   4.541514     3.1154    165.000 5.8107e-02    16.1275    36.1437  1027.3250    26.5983    4.45941         29 0.0000e+00
      33912 167.464317     -0.589    165.219    16.1530   4.541268     3.1212    164.000 5.9240e-02    16.1264    36.1431  1027.3199    26.5981    4.46962         22 0.0000e+00
      33934 167.464327     -0.937    164.150    16.1574   4.541613     3.1209    163.000 5.7299e-02    16.1310    36.1426  1027.3138    26.5966    4.46800         18 0.0000e+00
      33954 167.464337     -1.171    163.151    16.1700   4.543081     3.1222    162.000 5.9666e-02    16.1438    36.1446  1027.3080    26.5952    4.46878         18 0.0000e+00
      33975 167.464347     -1.177    162.214    16.1855   4.544956     3.1249    161.000 6.1497e-02    16.1594    36.1477  1027.3026    26.5940    4.47173         14 0.0000e+00
      34001 167.464360     -0.963    161.262    16.2062   4.547435     3.1248    160.000 5.7691e-02    16.1802    36.1513  1027.2963    26.5919    4.46925         19 0.0000e+00
      34030 167.464374     -0.853    160.202    16.2218   4.549325     3.1229    159.000 6.1927e-02    16.1960    36.1544  1027.2903    26.5906    4.46354         22 0.0000e+00
      34059 167.464388     -0.924    159.144    16.2389   4.551410     3.1251    158.000 6.2903e-02    16.2133    36.1578  1027.2843    26.5893    4.46554         21 0.0000e+00
      34105 167.464410     -0.472    158.238    16.2656   4.554375     3.1272    157.000 5.8733e-02    16.2400    36.1604  1027.2760    26.5850    4.46643         31 0.0000e+00
      34143 167.464428     -0.621    157.178    16.2706   4.555141     3.1280    156.000 6.0213e-02    16.2453    36.1631  1027.2722    26.5858    4.46685         23 0.0000e+00
      34167 167.464440     -0.957    156.076    16.3127   4.560800     3.1297    155.000 6.3533e-02    16.2875    36.1756  1027.2671    26.5856    4.46535         17 0.0000e+00
      34184 167.464448     -1.207    155.118    16.3840   4.569033     3.1247    154.000 6.6285e-02    16.3589    36.1844  1027.2528    26.5757    4.44937         12 0.0000e+00
      34204 167.464457     -1.276    154.138    16.4123   4.572275     3.1204    153.000 6.5302e-02    16.3873    36.1880  1027.2445    26.5718    4.43845         17 0.0000e+00
      34226 167.464468     -1.099    153.308    16.4293   4.574095     3.1188    152.000 6.8865e-02    16.4044    36.1891  1027.2377    26.5686    4.43350         10 0.0000e+00
      34263 167.464486     -0.728    152.217    16.4403   4.575538     3.1226    151.000 7.1065e-02    16.4155    36.1923  1027.2328    26.5685    4.43886         24 0.0000e+00
      34296 167.464502     -0.786    151.087    16.4618   4.578585     3.1286    150.000 7.1929e-02    16.4372    36.2003  1027.2288    26.5695    4.44723         21 0.0000e+00
      34320 167.464514     -0.919    150.122    16.5124   4.584332     3.1355    149.000 7.0537e-02    16.4879    36.2058  1027.2168    26.5618    4.45483         18 0.0000e+00
      34363 167.464534     -0.639    149.043    16.5756   4.591873     3.1431    148.000 6.9879e-02    16.5512    36.2157  1027.2046    26.5545    4.46252         44 0.0000e+00
      34411 167.464557     -0.417    148.128    16.5945   4.593905     3.1432    147.000 7.6821e-02    16.5703    36.2169  1027.1970    26.5510    4.46050         25 0.0000e+00
      34445 167.464574     -0.666    147.130    16.5955   4.594047     3.1433    146.000 7.3820e-02    16.5715    36.2176  1027.1929    26.5512    4.46006         26 0.0000e+00
      34494 167.464598     -0.512    146.078    16.6069   4.595363     3.1433    145.000 7.0263e-02    16.5830    36.2194  1027.1869    26.5499    4.45839         42 0.0000e+00
      34544 167.464621     -0.479    145.000    16.6108   4.595871     3.1380    144.000 7.1280e-02    16.5871    36.2207  1027.1823    26.5499    4.44761         21 0.0000e+00
      34566 167.464632     -0.879    144.030    16.6165   4.596506     3.1387    143.000 7.3819e-02    16.5929    36.2216  1027.1774    26.5492    4.44786         17 0.0000e+00
      34591 167.464644     -0.854    143.291    16.6402   4.599804     3.1439    142.000 7.4555e-02    16.6167    36.2296  1027.1746    26.5497    4.45471         19 0.0000e+00
      34648 167.464671     -0.500    142.063    16.7305   4.610562     3.1542    141.000 8.1514e-02    16.7072    36.2433  1027.1581    26.5389    4.46482         40 0.0000e+00
      34685 167.464689     -0.686    140.982    16.7591   4.614144     3.1542    140.000 8.6108e-02    16.7359    36.2494  1027.1513    26.5368    4.46165         25 0.0000e+00
      34714 167.464703     -0.768    140.077    16.7930   4.618362     3.1545    139.000 8.9542e-02    16.7699    36.2563  1027.1444    26.5340    4.45859         23 0.0000e+00
      34776 167.464733     -0.373    139.040    16.8869   4.629433     3.1611    138.000 9.2681e-02    16.8638    36.2694  1027.1273    26.5216    4.46182         32 0.0000e+00
      34832 167.464760     -0.438    138.001    16.8914   4.630033     3.1608    137.000 9.2384e-02    16.8686    36.2710  1027.1229    26.5217    4.46015         20 0.0000e+00
      34850 167.464769     -0.884    136.955    16.9225   4.634031     3.1634    136.000 8.7997e-02    16.8998    36.2784  1027.1165    26.5200    4.46151         19 0.0000e+00
      34874 167.464780     -1.065    135.994    16.9446   4.636376     3.1674    135.000 9.2117e-02    16.9220    36.2795  1027.1078    26.5155    4.46626         24 0.0000e+00
      34928 167.464806     -0.339    134.965    16.9682   4.639052     3.1738    134.000 9.1681e-02    16.9458    36.2821  1027.0996    26.5118    4.47526         30 0.0000e+00
      34963 167.464824     -0.597    133.978    16.9825   4.641030     3.1772    133.000 9.4061e-02    16.9602    36.2869  1027.0955    26.5120    4.47946         24 0.0000e+00
      34991 167.464837     -0.922    132.946    17.0301   4.646638     3.1757    132.000 9.3601e-02    17.0080    36.2936  1027.0845    26.5057    4.47196         17 0.0000e+00
      35059 167.464870     -0.330    131.947    17.0777   4.652314     3.1712    131.000 1.0196e-01    17.0556    36.3008  1027.0742    26.4998    4.45897         32 0.0000e+00
      35095 167.464887     -0.671    130.898    17.1080   4.656206     3.1728    130.000 1.0376e-01    17.0861    36.3080  1027.0678    26.4980    4.45850         25 0.0000e+00
      35122 167.464900     -0.894    129.904    17.1656   4.663568     3.1746    129.000 1.0191e-01    17.1438    36.3209  1027.0593    26.4939    4.45616         24 0.0000e+00
      35150 167.464914     -0.832    128.967    17.2233   4.670116     3.1787    128.000 1.2057e-01    17.2016    36.3265  1027.0454    26.4843    4.45790         21 0.0000e+00
      35179 167.464928     -0.765    128.046    17.2551   4.673993     3.1826    127.000 1.1702e-01    17.2336    36.3320  1027.0379    26.4808    4.46164         14 0.0000e+00
      35203 167.464940     -0.857    127.100    17.2940   4.678827     3.1838    126.000 1.2632e-01    17.2726    36.3396  1027.0300    26.4772    4.45981         15 0.0000e+00
      35245 167.464960     -0.762    125.886    17.3598   4.686534     3.1898    125.000 1.3440e-01    17.3385    36.3481  1027.0151    26.4677    4.46412         38 0.0000e+00
      35328 167.464999     -0.203    124.837    17.3993   4.690889     3.2005    124.000 1.4646e-01    17.3781    36.3509  1027.0030    26.4602    4.47936         30 0.0000e+00
      35351 167.465011     -0.719    123.858    17.4264   4.694216     3.2029    123.000 1.3950e-01    17.4055    36.3558  1026.9958    26.4573    4.48070         28 0.0000e+00
      35380 167.465025     -0.896    122.835    17.4512   4.697055     3.2054    122.000 1.3852e-01    17.4304    36.3586  1026.9874    26.4534    4.48243         27 0.0000e+00
      35409 167.465039     -0.656    122.142    17.4770   4.700193     3.2070    121.000 1.7252e-01    17.4563    36.3630  1026.9813    26.4505    4.48254         15 0.0000e+00
      35441 167.465054     -0.669    121.189    17.5127   4.704408     3.2098    120.000 1.6040e-01    17.4921    36.3680  1026.9722    26.4456    4.48403         14 0.0000e+00
      35490 167.465078     -0.692    119.839    17.5800   4.712683     3.2173    119.000 1.6037e-01    17.5596    36.3799  1026.9588    26.4381    4.49068         40 0.0000e+00
      35545 167.465104     -0.277    118.901    17.5969   4.714707     3.2193    118.000 1.6371e-01    17.5767    36.3826  1026.9526    26.4361    4.49221         17 0.0000e+00
      35554 167.465109     -0.669    118.293    17.6072   4.716164     3.2203    117.000 1.6415e-01    17.5870    36.3862  1026.9502    26.4363    4.49265          7 0.0000e+00
      35587 167.465124     -1.065    116.880    17.7286   4.731309     3.2253    116.000 1.7663e-01    17.7086    36.4090  1026.9314    26.4239    4.48990         32 0.0000e+00
      35636 167.465148     -0.488    115.806    17.7887   4.738260     3.2266    115.000 1.9181e-01    17.7688    36.4157  1026.9169    26.4142    4.48644         45 0.0000e+00
      35677 167.465168     -0.578    114.783    17.8142   4.741610     3.2307    114.000 1.9290e-01    17.7945    36.4221  1026.9110    26.4128    4.49084         23 0.0000e+00
      35704 167.465181     -0.776    113.887    17.8683   4.748276     3.2347    113.000 2.1048e-01    17.8487    36.4316  1026.9008    26.4066    4.49275         26 0.0000e+00
      35733 167.465195     -0.665    113.145    17.9430   4.756535     3.2424    112.000 2.2033e-01    17.9234    36.4363  1026.8826    26.3917    4.49958         11 0.0000e+00
      35769 167.465212     -0.719    111.957    18.0413   4.769171     3.2538    111.000 2.2733e-01    18.0219    36.4575  1026.8690    26.3835    4.51042         19 0.0000e+00
      35790 167.465222     -0.973    111.005    18.1470   4.781509     3.2676    110.000 2.4236e-01    18.1277    36.4694  1026.8474    26.3662    4.52512         14 0.0000e+00
      35830 167.465241     -0.850    109.765    18.2343   4.791443     3.2841    109.000 2.5162e-01    18.2152    36.4771  1026.8258    26.3502    4.54596         30 0.0000e+00
      35903 167.465277     -0.227    108.778    18.2774   4.796325     3.3034    108.000 2.6959e-01    18.2584    36.4808  1026.8135    26.3422    4.57567         23 0.0000e+00
      35920 167.465285     -0.841    107.736    18.3145   4.801434     3.3106    107.000 2.5163e-01    18.2957    36.4918  1026.8080    26.3412    4.58422         17 0.0000e+00
      35937 167.465293     -1.245    106.736    18.3768   4.809619     3.3179    106.000 2.7672e-01    18.3581    36.5066  1026.7992    26.3369    4.59085         18 0.0000e+00
      35958 167.465303     -1.319    105.731    18.4656   4.819235     3.3190    105.000 3.1067e-01    18.4469    36.5100  1026.7748    26.3170    4.58467         23 0.0000e+00
      35985 167.465316     -0.928    104.860    18.4965   4.822552     3.3167    104.000 2.6573e-01    18.4780    36.5111  1026.7640    26.3100    4.57734         13 0.0000e+00
      36013 167.465330     -0.691    104.029    18.5295   4.826731     3.3187    103.000 3.2026e-01    18.5111    36.5177  1026.7570    26.3066    4.57752         16 0.0000e+00
      36043 167.465344     -0.882    102.873    18.5791   4.832762     3.3232    102.000 3.1413e-01    18.5609    36.5253  1026.7451    26.2999    4.58024         14 0.0000e+00
      36080 167.465362     -0.804    101.704    18.6366   4.839434     3.3359    101.000 3.1880e-01    18.6186    36.5314  1026.7299    26.2899    4.59676         25 0.0000e+00
      36109 167.465376     -0.775    100.701    18.6703   4.843976     3.3507    100.000 3.8294e-01    18.6525    36.5404  1026.7238    26.2881    4.61889         22 0.0000e+00
      36132 167.465387     -0.925     99.723    18.7294   4.851039     3.3618     99.000 3.6144e-01    18.7116    36.5483  1026.7105    26.2791    4.63248         16 0.0000e+00
      36153 167.465397     -1.084     98.714    18.8081   4.860251     3.3725     98.000 3.7975e-01    18.7905    36.5569  1026.6924    26.2655    4.64368         13 0.0000e+00
      36171 167.465406     -1.164     97.813    18.8564   4.866260     3.3747     97.000 4.1265e-01    18.8389    36.5652  1026.6824    26.2595    4.64264         15 0.0000e+00
      36201 167.465420     -1.027     96.673    18.9214   4.873757     3.3811     96.000 4.2857e-01    18.9041    36.5714  1026.6654    26.2475    4.64735         25 0.0000e+00
      36229 167.465434     -0.840     95.676    18.9812   4.880978     3.3902     95.000 4.0479e-01    18.9640    36.5799  1026.6521    26.2386    4.65723         24 0.0000e+00
      36253 167.465446     -0.962     94.648    19.0587   4.890461     3.3978     94.000 4.1317e-01    19.0416    36.5916  1026.6365    26.2276    4.66300         22 0.0000e+00
      36278 167.465458     -0.994     93.667    19.1859   4.905576     3.4048     93.000 3.9831e-01    19.1690    36.6067  1026.6107    26.2062    4.66329         21 0.0000e+00
      36318 167.465477     -0.653     92.636    19.3264   4.921216     3.4065     92.000 3.9790e-01    19.3096    36.6144  1026.5753    26.1755    4.65368         37 0.0000e+00
      36366 167.465500     -0.442     91.647    19.3497   4.923574     3.4120     91.000 4.3643e-01    19.3330    36.6140  1026.5646    26.1691    4.66064         29 0.0000e+00
      36387 167.465510     -0.817     90.636    19.4762   4.941447     3.4238     90.000 3.5664e-01    19.4597    36.6523  1026.5562    26.1653    4.66854         18 0.0000e+00
      36407 167.465520     -1.143     89.612    19.8298   4.979689     3.4325     89.000 3.9748e-01    19.8132    36.6605  1026.4647    26.0786    4.65327         17 0.0000e+00
      36432 167.465532     -1.087     88.641    20.0743   5.007165     3.4394     88.000 3.5233e-01    20.0578    36.6742  1026.4056    26.0241    4.64376         27 0.0000e+00
      36459 167.465545     -0.846     87.681    20.3579   5.039355     3.4462     87.000 3.0542e-01    20.3414    36.6923  1026.3389    25.9619    4.63094         14 0.0000e+00
      36478 167.465554     -0.912     86.851    20.4675   5.051585     3.4478     86.000 2.8002e-01    20.4510    36.6975  1026.3096    25.9364    4.62420          8 0.0000e+00
      36500 167.465565     -1.104     85.831    20.6236   5.068695     3.4478     85.000 2.7899e-01    20.6073    36.7022  1026.2663    25.8976    4.61064         16 0.0000e+00
      36547 167.465587     -0.666     84.587    20.6513   5.071293     3.4467     84.000 2.3744e-01    20.6352    36.6999  1026.2516    25.8883    4.60587         55 0.0000e+00
      36592 167.465609     -0.474     83.550    20.6579   5.071934     3.4471     83.000 2.2298e-01    20.6420    36.6998  1026.2452    25.8863    4.60540         23 0.0000e+00
      36612 167.465619     -0.885     82.584    20.6660   5.072785     3.4452     82.000 2.2254e-01    20.6502    36.7000  1026.2390    25.8843    4.60093         17 0.0000e+00
      36636 167.465630     -1.046     81.627    20.6702   5.073039     3.4424     81.000 2.2711e-01    20.6546    36.6988  1026.2328    25.8822    4.59541         20 0.0000e+00
      36667 167.465645     -0.824     80.624    20.6772   5.074088     3.4479     80.000 2.4368e-01    20.6619    36.7016  1026.2286    25.8824    4.60327         24 0.0000e+00
      36698 167.465660     -0.691     79.733    20.7040   5.077939     3.4550     79.000 2.4387e-01    20.6888    36.7101  1026.2239    25.8815    4.61228         16 0.0000e+00
      36729 167.465675     -0.748     78.749    20.7114   5.078631     3.4510     78.000 2.3686e-01    20.6964    36.7097  1026.2173    25.8791    4.60445         20 0.0000e+00
      36758 167.465689     -0.765     77.794    20.7176   5.079432     3.4520     77.000 2.3004e-01    20.7028    36.7112  1026.2126    25.8785    4.60490         11 0.0000e+00
      36783 167.465701     -0.909     76.787    20.7234   5.080140     3.4524     76.000 2.1923e-01    20.7087    36.7123  1026.2075    25.8778    4.60453         18 0.0000e+00
      36812 167.465715     -0.963     75.656    20.7296   5.080949     3.4512     75.000 2.1055e-01    20.7151    36.7140  1026.2022    25.8773    4.60125         25 0.0000e+00
      36851 167.465734     -0.690     74.534    20.7319   5.081150     3.4514     74.000 2.1525e-01    20.7176    36.7140  1026.1967    25.8766    4.60075         20 0.0000e+00
      36870 167.465743     -0.711     73.932    20.7312   5.081082     3.4526     73.000 2.1606e-01    20.7171    36.7143  1026.1945    25.8770    4.60235         13 0.0000e+00
      36897 167.465756     -0.864     72.915    20.7323   5.081081     3.4496     72.000 2.1162e-01    20.7184    36.7137  1026.1893    25.8762    4.59663         14 0.0000e+00
      36925 167.465770     -0.962     71.805    20.7291   5.080525     3.4501     71.000 2.1132e-01    20.7154    36.7124  1026.1844    25.8760    4.59706         18 0.0000e+00
      36961 167.465787     -0.780     70.693    20.7287   5.080400     3.4550     70.000 2.0343e-01    20.7152    36.7121  1026.1795    25.8759    4.60454         22 0.0000e+00
      36999 167.465805     -0.569     69.730    20.7296   5.080512     3.4586     69.000 2.1407e-01    20.7163    36.7125  1026.1753    25.8759    4.60998         15 0.0000e+00
      37022 167.465817     -0.777     68.838    20.7322   5.080821     3.4607     68.000 1.9631e-01    20.7190    36.7132  1026.1713    25.8756    4.61269         14 0.0000e+00
      37052 167.465831     -1.024     67.581    20.7291   5.080296     3.4634     67.000 2.1157e-01    20.7162    36.7120  1026.1657    25.8755    4.61669         18 0.0000e+00
      37080 167.465844     -0.921     66.593    20.7298   5.080369     3.4628     66.000 2.1686e-01    20.7171    36.7124  1026.1615    25.8756    4.61499         25 0.0000e+00
      37111 167.465859     -0.751     65.653    20.7312   5.080547     3.4622     65.000 2.0094e-01    20.7186    36.7130  1026.1576    25.8756    4.61328         17 0.0000e+00
      37143 167.465875     -0.747     64.618    20.7316   5.080590     3.4636     64.000 2.0862e-01    20.7192    36.7134  1026.1533    25.8757    4.61501         22 0.0000e+00
      37177 167.465891     -0.760     63.609    20.7339   5.080909     3.4617     63.000 1.9685e-01    20.7218    36.7143  1026.1489    25.8757    4.61098         26 0.0000e+00
      37226 167.465915     -0.483     62.497    20.7360   5.081194     3.4656     62.000 2.0631e-01    20.7241    36.7152  1026.1442    25.8758    4.61648         25 0.0000e+00
      37251 167.465927     -0.837     61.410    20.7392   5.081586     3.4656     61.000 1.8569e-01    20.7275    36.7160  1026.1392    25.8755    4.61557         19 0.0000e+00
      37267 167.465935     -1.130     60.497    20.7400   5.081629     3.4666     60.000 1.9549e-01    20.7284    36.7161  1026.1351    25.8753    4.61664         14 0.0000e+00
      37285 167.465943     -1.256     59.610    20.7391   5.081450     3.4658     59.000 1.8649e-01    20.7277    36.7157  1026.1312    25.8752    4.61481         11 0.0000e+00
      37316 167.465958     -0.988     58.540    20.7390   5.081438     3.4612     58.000 1.8840e-01    20.7278    36.7161  1026.1269    25.8755    4.60651         26 0.0000e+00
      37348 167.465974     -0.632     57.677    20.7388   5.081412     3.4624     57.000 1.9777e-01    20.7277    36.7164  1026.1234    25.8757    4.60803         19 0.0000e+00
      37380 167.465989     -0.806     56.464    20.7390   5.081377     3.4664     56.000 1.8417e-01    20.7282    36.7164  1026.1181    25.8756    4.61386         15 0.0000e+00
      37399 167.465998     -1.103     55.432    20.7391   5.081364     3.4672     55.000 1.9795e-01    20.7285    36.7165  1026.1137    25.8756    4.61446         14 0.0000e+00
      37430 167.466013     -0.992     54.410    20.7390   5.081288     3.4681     54.000 1.8023e-01    20.7286    36.7164  1026.1091    25.8755    4.61535         35 0.0000e+00
      37475 167.466035     -0.415     53.443    20.7387   5.081241     3.4680     53.000 1.8874e-01    20.7285    36.7166  1026.1052    25.8757    4.61466         26 0.0000e+00
      37496 167.466045     -0.860     52.434    20.7395   5.081290     3.4696     52.000 1.8181e-01    20.7295    36.7167  1026.1007    25.8754    4.61669         15 0.0000e+00
      37520 167.466057     -1.132     51.371    20.7394   5.081219     3.4721     51.000 1.8008e-01    20.7296    36.7166  1026.0960    25.8753    4.62024         20 0.0000e+00
      37558 167.466075     -0.732     50.340    20.7390   5.081145     3.4722     50.000 1.8808e-01    20.7294    36.7167  1026.0917    25.8755    4.61968         39 0.0000e+00
      37596 167.466093     -0.458     49.414    20.7384   5.081047     3.4651     49.000 1.9358e-01    20.7290    36.7167  1026.0879    25.8756    4.60738         19 0.0000e+00
      37614 167.466102     -0.839     48.532    20.7391   5.081078     3.4673     48.000 1.7604e-01    20.7298    36.7168  1026.0839    25.8755    4.61034         12 0.0000e+00
      37641 167.466115     -1.039     47.408    20.7387   5.080958     3.4693     47.000 1.8619e-01    20.7296    36.7165  1026.0789    25.8753    4.61301         29 0.0000e+00
      37695 167.466141     -0.386     46.303    20.7388   5.080915     3.4719     46.000 1.8398e-01    20.7300    36.7164  1026.0740    25.8751    4.61672         35 0.0000e+00
      37729 167.466157     -0.569     45.395    20.7384   5.080841     3.4705     45.000 1.7238e-01    20.7297    36.7166  1026.0703    25.8753    4.61388         20 0.0000e+00
      37758 167.466171     -0.961     44.311    20.7386   5.080826     3.4717     44.000 1.8252e-01    20.7302    36.7166  1026.0655    25.8752    4.61510         19 0.0000e+00
      37792 167.466187     -0.646     43.514    20.7385   5.080767     3.4739     43.000 1.8775e-01    20.7302    36.7166  1026.0621    25.8751    4.61837         22 0.0000e+00
      37824 167.466203     -0.694     42.497    20.7385   5.080747     3.4698     42.000 1.7346e-01    20.7303    36.7168  1026.0579    25.8753    4.61079         13 0.0000e+00
      37847 167.466215     -0.948     41.452    20.7386   5.080698     3.4718     41.000 1.7021e-01    20.7307    36.7167  1026.0532    25.8751    4.61355         18 0.0000e+00
      37878 167.466229     -0.960     40.292    20.7382   5.080612     3.4705     40.000 1.8511e-01    20.7305    36.7168  1026.0483    25.8752    4.61066         24 0.0000e+00
      37906 167.466243     -0.870     39.273    20.7379   5.080541     3.4711     39.000 1.7794e-01    20.7304    36.7168  1026.0440    25.8753    4.61104         24 0.0000e+00
      37932 167.466255     -0.914     38.280    20.7376   5.080447     3.4759     38.000 1.6529e-01    20.7303    36.7166  1026.0396    25.8752    4.61852         23 0.0000e+00
      37963 167.466270     -0.838     37.269    20.7376   5.080401     3.4765     37.000 1.7494e-01    20.7305    36.7167  1026.0353    25.8752    4.61885         27 0.0000e+00
      37987 167.466282     -0.761     36.484    20.7374   5.080346     3.4758     36.000 1.7588e-01    20.7305    36.7167  1026.0319    25.8752    4.61728         13 0.0000e+00
      38016 167.466296     -0.859     35.402    20.7381   5.080379     3.4747     35.000 1.6624e-01    20.7313    36.7167  1026.0271    25.8750    4.61467         22 0.0000e+00
      38045 167.466310     -0.917     34.320    20.7379   5.080315     3.4745     34.000 1.6538e-01    20.7313    36.7168  1026.0225    25.8750    4.61372         23 0.0000e+00
      38079 167.466326     -0.807     33.224    20.7392   5.080311     3.4768     33.000 1.4771e-01    20.7328    36.7160  1026.0168    25.8740    4.61667         29 0.0000e+00
      38103 167.466338     -0.723     32.469    20.7397   5.080289     3.4780     32.000 1.4828e-01    20.7335    36.7157  1026.0131    25.8736    4.61823         13 0.0000e+00
      38129 167.466350     -0.847     31.516    20.7402   5.080267     3.4730     31.000 1.4747e-01    20.7342    36.7154  1026.0086    25.8732    4.60930         13 0.0000e+00
      38162 167.466366     -0.876     30.318    20.7391   5.080155     3.4743     30.000 1.3910e-01    20.7333    36.7159  1026.0041    25.8738    4.61069         27 0.0000e+00
      38192 167.466381     -0.856     29.255    20.7382   5.080084     3.4758     29.000 1.4514e-01    20.7327    36.7165  1026.0001    25.8744    4.61265         26 0.0000e+00
      38224 167.466396     -0.832     28.194    20.7374   5.079963     3.4781     28.000 1.5368e-01    20.7321    36.7166  1025.9958    25.8747    4.61583         29 0.0000e+00
      38264 167.466415     -0.606     27.197    20.7369   5.079882     3.4803     27.000 1.3324e-01    20.7317    36.7167  1025.9917    25.8749    4.61889         33 0.0000e+00
      38305 167.466435     -0.563     26.206    20.7373   5.079857     3.4751     26.000 1.3816e-01    20.7323    36.7166  1025.9872    25.8746    4.60965         31 0.0000e+00
      38339 167.466451     -0.697     25.210    20.7375   5.079868     3.4767     25.000 1.4684e-01    20.7327    36.7169  1025.9830    25.8747    4.61161         34 0.0000e+00
      38375 167.466469     -0.676     24.160    20.7401   5.079997     3.4779     24.000 1.2758e-01    20.7355    36.7160  1025.9771    25.8733    4.61276         30 0.0000e+00
      38415 167.466488     -0.614     23.206    20.7417   5.080065     3.4757     23.000 1.1368e-01    20.7373    36.7155  1025.9722    25.8725    4.60843         26 0.0000e+00
      38451 167.466505     -0.546     22.360    20.7415   5.080012     3.4817     22.000 1.1763e-01    20.7372    36.7156  1025.9686    25.8725    4.61798         26 0.0000e+00
      38482 167.466521     -0.830     21.190    20.7415   5.079947     3.4839     21.000 1.1127e-01    20.7375    36.7155  1025.9634    25.8723    4.62083         27 0.0000e+00
      38519 167.466538     -0.766     20.141    20.7427   5.080022     3.4825     20.000 1.1515e-01    20.7389    36.7154  1025.9585    25.8719    4.61776         39 0.0000e+00
      38574 167.466565     -0.398     19.161    20.7421   5.079891     3.4763     19.000 1.1074e-01    20.7385    36.7152  1025.9542    25.8719    4.60686         35 0.0000e+00
      38608 167.466582     -0.701     18.124    20.7418   5.079816     3.4835     18.000 1.0724e-01    20.7383    36.7153  1025.9498    25.8720    4.61816         33 0.0000e+00
      38651 167.466602     -0.580     17.122    20.7422   5.079843     3.4852     17.000 1.0525e-01    20.7389    36.7156  1025.9456    25.8720    4.62037         42 0.0000e+00
      38689 167.466620     -0.585     16.110    20.7438   5.079976     3.4849     16.000 1.0185e-01    20.7407    36.7156  1025.9408    25.8716    4.61913         26 0.0000e+00
      38713 167.466632     -0.877     15.104    20.7443   5.079974     3.4837     15.000 9.6454e-02    20.7414    36.7155  1025.9362    25.8713    4.61652         24 0.0000e+00
      38738 167.466644     -1.001     14.105    20.7449   5.079906     3.4851     14.000 9.7337e-02    20.7422    36.7149  1025.9312    25.8706    4.61814         23 0.0000e+00
      38775 167.466662     -0.716     13.091    20.7442   5.079841     3.4855     13.000 1.0000e-01    20.7417    36.7153  1025.9273    25.8711    4.61822         43 0.0000e+00
      38823 167.466685     -0.498     12.083    20.7427   5.079650     3.4887     12.000 1.0821e-01    20.7404    36.7154  1025.9234    25.8715    4.62295         47 0.0000e+00
      38870 167.466708     -0.501     11.078    20.7425   5.079577     3.4875     11.000 9.6763e-02    20.7404    36.7153  1025.9190    25.8714    4.62038         35 0.0000e+00
      38912 167.466728     -0.596     10.074    20.7428   5.079575     3.4851     10.000 9.5676e-02    20.7409    36.7154  1025.9147    25.8714    4.61581         45 0.0000e+00
      39036 167.466788     -0.232      9.059    20.7463   5.079890     3.4875      9.000 9.3988e-02    20.7446    36.7153  1025.9092    25.8703    4.61884         54 0.0000e+00
      39207 167.466870     -0.182      8.049    20.7505   5.080328     3.4867      8.000 8.9096e-02    20.7490    36.7156  1025.9039    25.8693    4.61657         31 0.0000e+00
      39311 167.466920     -0.255      7.056    20.7513   5.080388     3.4888      7.000 8.8635e-02    20.7500    36.7158  1025.8995    25.8692    4.61937         49 0.0000e+00
      39447 167.466986     -0.226      6.045    20.7510   5.080341     3.4861      6.000 8.5773e-02    20.7498    36.7161  1025.8954    25.8694    4.61424         47 0.0000e+00
      39525 167.467024     -0.355      5.037    20.7503   5.080201     3.4869      5.000 8.6273e-02    20.7494    36.7159  1025.8910    25.8694    4.61509         40 0.0000e+00
      39642 167.467080     -0.242      4.031    20.7510   5.080242     3.4868      4.000 8.5900e-02    20.7503    36.7159  1025.8865    25.8692    4.61420         52 0.0000e+00
      39774 167.467144     -0.344      3.028    20.7523   5.080288     3.4886      3.000 8.1346e-02    20.7517    36.7156  1025.8815    25.8685    4.61637         49 0.0000e+00
      39991 167.467248     -0.467      2.040    20.7540   5.080404     3.4902      2.000 8.0976e-02    20.7536    36.7154  1025.8766    25.8679    4.61838         44 0.0000e+00
