* Sea-Bird SBE 9 Data File:
* FileName = D:\ACEX\brutos\MCTV003.hex
* Software Version Seasave V 7.17
* Temperature SN = 4821
* Conductivity SN = 3367
* Number of Bytes Per Scan = 21
* Number of Voltage Words = 3
* Number of Scans Averaged by the Deck Unit = 1
* System UpLoad Time = Jun 12 2012 15:52:10
** H38 
** NHo Cruzeiro do Sul 
** 222 
** MCTV ACEx 
**   003
**   25 56.592 s
**   045 54.456 w
**   12/06/2012 18:51Z
**   277
** 9P46375-0882 
**   1T Oliveira Santos
# nquan = 16
# nvalues = 249                         
# units = specified
# name 0 = scan: Scan Count
# name 1 = timeJ: Julian Days
# name 2 = dz/dtM: Descent Rate [m/s]
# name 3 = prDM: Pressure, Digiquartz [db]
# name 4 = t090C: Temperature [ITS-90, deg C]
# name 5 = c0S/m: Conductivity [S/m]
# name 6 = sbeox0V: Oxygen Voltage, SBE 43
# name 7 = depSM: Depth [salt water, m]
# name 8 = flSP: Fluorescence, Seapoint
# name 9 = potemp090C: Potential Temperature [ITS-90, deg C]
# name 10 = sal00: Salinity [PSU]
# name 11 = density00: Density [density, Kg/m^3]
# name 12 = sigma-é00: Density [sigma-theta, Kg/m^3]
# name 13 = sbeox0ML/L: Oxygen, SBE 43 [ml/l], WS = 2
# name 14 = nbin: number of scans per bin
# name 15 = flag: flag
# span 0 =      19246,      38680       
# span 1 = 164.670508, 164.679880       
# span 2 =     -1.221,     -0.184       
# span 3 =      1.037,    250.786       
# span 4 =    11.4456,    21.8125       
# span 5 =   4.001761,   5.123122       
# span 6 =     2.6220,     3.5051       
# span 7 =      1.000,    249.000       
# span 8 = 4.8521e-02, 5.0199e-02       
# span 9 =    11.4136,    21.8062       
# span 10 =    35.4334,    36.3708      
# span 11 =  1025.0011,  1028.1553      
# span 12 =    24.9936,    27.0369      
# span 13 =    3.63031,    4.59714      
# span 14 =         18,         61      
# span 15 = 0.0000e+00, 0.0000e+00      
# interval = meters: 1                  
# start_time = Jun 12 2012 15:52:10
# bad_flag = -9.990e-29
# sensor 0 = Frequency  0  temperature, 4821, 05-sep-07
# sensor 1 = Frequency  1  conductivity, 3367, 05-mar-08, cpcor = -9.5700e-08
# sensor 2 = Frequency  2  pressure, 106018, 28-sep-07
# sensor 3 = Extrnl Volt  0  Oxygen, SBE, primary, 0802, 30-nov-07
# sensor 4 = Extrnl Volt  2  Fluorometer, Seapoint, primary
# sensor 5 = Extrnl Volt  4  altimeter
# datcnv_date = Jun 12 2012 16:29:10, 7.17
# datcnv_in = D:\ACEX\brutos\MCTV003.hex D:\ACEX\arqconfig\AC0882mod1.con
# datcnv_skipover = 6083
# filter_date = Jun 12 2012 16:30:17, 7.17
# filter_in = D:\ACEX\dat cnv\MCTV003.cnv
# filter_low_pass_tc_A = 0.150
# filter_low_pass_tc_B = 0.000
# filter_low_pass_A_vars = prDM
# filter_low_pass_B_vars = c0S/m
# alignctd_date = Jun 12 2012 16:31:04, 7.17
# alignctd_in = D:\ACEX\filter\MCTV003.cnv
# alignctd_adv = c0S/m 0.073, sbeox0V 2.000                                                                                                                                                                                          
# wildedit_date = Jun 12 2012 16:32:21, 7.17
# wildedit_in = D:\ACEX\align\MCTV003.cnv
# wildedit_pass1_nstd = 2.0
# wildedit_pass2_nstd = 20.0
# wildedit_pass2_mindelta = 1.000e+002
# wildedit_npoint = 1000
# wildedit_vars = dz/dtM prDM t090C c0S/m sbeox0V flSP
# wildedit_excl_bad_scans = yes
# celltm_date = Jun 12 2012 16:32:58, 7.17
# celltm_in = D:\ACEX\wildedit\MCTV003.cnv
# celltm_alpha = 0.0300, 0.0000
# celltm_tau = 7.0000, 0.0000
# celltm_temp_sensor_use_for_cond = primary, 
# loopedit_date = Jun 12 2012 16:33:41, 7.17
# loopedit_in = D:\ACEX\celltm\MCTV003.cnv
# loopedit_minVelocity = 0.250                                                                                            
# loopedit_surfaceSoak: minDepth = 5.0, maxDepth = 20, useDeckPress = 1                                                   
# loopedit_excl_bad_scans = yes
# Derive_date = Jun 12 2012 16:36:56, 7.17
# Derive_in = D:\ACEX\loopedit\MCTV003.cnv D:\ACEX\arqconfig\AC0882.con
# derive_time_window_docdt = seconds: 2
# binavg_date = Jun 12 2012 16:38:18, 7.17
# binavg_in = D:\ACEX\derive\MCTV003.cnv
# binavg_bintype = meters
# binavg_binsize = 1
# binavg_excl_bad_scans = yes
# binavg_skipover = 0
# binavg_surface_bin = no, min = 0.000, max = 0.000, value = 0.000
# split_date = Jun 12 2012 16:39:47, 7.17
# split_in = D:\ACEX\binavg\MCTV003.cnv
# split_excl_bad_scans = yes
# file_type = ascii
*END*
      19246 164.670508     -0.343    250.786    11.4456   4.001761     2.7947    249.000 4.9038e-02    11.4136    35.4334  1028.1553    27.0369    4.31262         41 0.0000e+00
      19333 164.670550     -0.194    249.782    11.4610   4.003500     2.7960    248.000 4.8914e-02    11.4291    35.4364  1028.1502    27.0363    4.31321         31 0.0000e+00
      19422 164.670592     -0.362    248.765    11.4953   4.007407     2.8002    247.000 4.8913e-02    11.4635    35.4426  1028.1439    27.0347    4.31790         50 0.0000e+00
      19463 164.670612     -0.560    247.755    11.5117   4.009064     2.8033    246.000 4.9145e-02    11.4800    35.4437  1028.1371    27.0325    4.32236         33 0.0000e+00
      19494 164.670627     -0.749    246.752    11.5213   4.010141     2.8020    245.000 4.9210e-02    11.4898    35.4456  1028.1322    27.0322    4.31815         33 0.0000e+00
      19541 164.670650     -0.570    245.749    11.5361   4.011714     2.8015    244.000 4.9051e-02    11.5047    35.4474  1028.1263    27.0308    4.31518         39 0.0000e+00
      19619 164.670688     -0.326    244.732    11.5593   4.014340     2.8046    243.000 4.8996e-02    11.5279    35.4516  1028.1205    27.0297    4.31868         46 0.0000e+00
      19687 164.670721     -0.303    243.726    11.5641   4.014822     2.8072    242.000 4.8948e-02    11.5328    35.4522  1028.1156    27.0293    4.32308         45 0.0000e+00
      19741 164.670746     -0.544    242.716    11.5844   4.017130     2.8087    241.000 4.9134e-02    11.5532    35.4561  1028.1102    27.0284    4.32354         21 0.0000e+00
      19762 164.670757     -0.970    241.721    11.5952   4.018003     2.8099    240.000 4.8944e-02    11.5642    35.4547  1028.1026    27.0253    4.32453         24 0.0000e+00
      19803 164.670776     -0.716    240.710    11.5940   4.017781     2.8113    239.000 4.9017e-02    11.5631    35.4542  1028.0979    27.0251    4.32690         41 0.0000e+00
      19864 164.670806     -0.366    239.691    11.6052   4.019193     2.8150    238.000 4.9143e-02    11.5744    35.4578  1028.0940    27.0258    4.33294         37 0.0000e+00
      19893 164.670820     -0.740    238.687    11.6359   4.022381     2.8224    237.000 4.9157e-02    11.6052    35.4604  1028.0856    27.0220    4.34468         27 0.0000e+00
      19922 164.670834     -0.834    237.685    11.6492   4.023750     2.8303    236.000 4.9117e-02    11.6185    35.4616  1028.0795    27.0204    4.35892         31 0.0000e+00
      19956 164.670850     -0.731    236.673    11.6566   4.024535     2.8350    235.000 4.9211e-02    11.6261    35.4627  1028.0744    27.0198    4.36725         33 0.0000e+00
      19987 164.670865     -0.751    235.660    11.6761   4.026687     2.8393    234.000 4.8879e-02    11.6456    35.4657  1028.0685    27.0185    4.37371         27 0.0000e+00
      20011 164.670877     -0.915    234.662    11.6911   4.028421     2.8418    233.000 4.8984e-02    11.6608    35.4689  1028.0636    27.0181    4.37678         25 0.0000e+00
      20043 164.670892     -0.846    233.658    11.7101   4.030313     2.8451    232.000 4.9012e-02    11.6799    35.4698  1028.0561    27.0152    4.38111         42 0.0000e+00
      20119 164.670929     -0.280    232.639    11.7181   4.031324     2.8479    231.000 4.9123e-02    11.6880    35.4726  1028.0521    27.0158    4.38548         38 0.0000e+00
      20161 164.670949     -0.601    231.633    11.7414   4.033684     2.8476    230.000 4.9313e-02    11.7114    35.4739  1028.0442    27.0125    4.38208         34 0.0000e+00
      20201 164.670968     -0.611    230.631    11.7417   4.033660     2.8482    229.000 4.9440e-02    11.7119    35.4738  1028.0395    27.0123    4.38270         43 0.0000e+00
      20255 164.670994     -0.447    229.623    11.7407   4.033523     2.8512    228.000 4.9120e-02    11.7110    35.4739  1028.0353    27.0125    4.38841         61 0.0000e+00
      20311 164.671022     -0.437    228.613    11.7492   4.034411     2.8522    227.000 4.8989e-02    11.7196    35.4749  1028.0299    27.0117    4.38895         49 0.0000e+00
      20387 164.671058     -0.284    227.595    11.7537   4.034881     2.8502    226.000 4.9180e-02    11.7243    35.4757  1028.0251    27.0114    4.38385         35 0.0000e+00
      20422 164.671075     -0.636    226.599    11.7691   4.036497     2.8506    225.000 4.9123e-02    11.7397    35.4774  1028.0190    27.0098    4.38267         26 0.0000e+00
      20449 164.671088     -0.873    225.594    11.7833   4.038074     2.8512    224.000 4.9188e-02    11.7540    35.4798  1028.0136    27.0089    4.38206         28 0.0000e+00
      20509 164.671117     -0.457    224.583    11.7898   4.038775     2.8518    223.000 4.9121e-02    11.7606    35.4809  1028.0087    27.0085    4.38208         39 0.0000e+00
      20571 164.671147     -0.488    223.575    11.7971   4.039435     2.8529    222.000 4.9076e-02    11.7681    35.4808  1028.0027    27.0070    4.38292         36 0.0000e+00
      20611 164.671166     -0.601    222.569    11.8024   4.039950     2.8523    221.000 4.8976e-02    11.7735    35.4812  1027.9975    27.0064    4.38059         45 0.0000e+00
      20657 164.671188     -0.520    221.559    11.8067   4.040452     2.8537    220.000 4.9105e-02    11.7779    35.4826  1027.9932    27.0065    4.38242         42 0.0000e+00
      20699 164.671209     -0.573    220.553    11.8206   4.041956     2.8538    219.000 4.9028e-02    11.7919    35.4845  1027.9875    27.0054    4.38078         46 0.0000e+00
      20751 164.671234     -0.452    219.543    11.8247   4.042386     2.8542    218.000 4.9026e-02    11.7962    35.4852  1027.9827    27.0051    4.38064         46 0.0000e+00
      20792 164.671253     -0.577    218.536    11.8462   4.044735     2.8555    217.000 4.9227e-02    11.8178    35.4882  1027.9764    27.0034    4.38077         35 0.0000e+00
      20824 164.671269     -0.723    217.530    11.8517   4.045254     2.8548    216.000 4.9070e-02    11.8233    35.4886  1027.9711    27.0026    4.37820         32 0.0000e+00
      20862 164.671287     -0.660    216.522    11.8574   4.045853     2.8537    215.000 4.9108e-02    11.8292    35.4895  1027.9662    27.0022    4.37478         41 0.0000e+00
      20903 164.671307     -0.578    215.513    11.8656   4.046811     2.8539    214.000 4.9031e-02    11.8375    35.4915  1027.9616    27.0021    4.37371         38 0.0000e+00
      20940 164.671325     -0.667    214.510    11.8795   4.048227     2.8538    213.000 4.9251e-02    11.8516    35.4925  1027.9552    27.0002    4.37164         33 0.0000e+00
      20998 164.671353     -0.425    213.507    11.8845   4.048672     2.8571    212.000 4.9247e-02    11.8567    35.4925  1027.9498    26.9993    4.37744         42 0.0000e+00
      21064 164.671384     -0.416    212.487    11.8991   4.050545     2.8577    211.000 4.9058e-02    11.8714    35.4974  1027.9462    27.0003    4.37666         37 0.0000e+00
      21096 164.671400     -0.672    211.486    11.9276   4.053552     2.8599    210.000 4.9077e-02    11.9000    35.5002  1027.9383    26.9970    4.37775         36 0.0000e+00
      21132 164.671417     -0.681    210.476    11.9422   4.055060     2.8617    209.000 4.9301e-02    11.9147    35.5015  1027.9319    26.9952    4.37957         32 0.0000e+00
      21169 164.671435     -0.656    209.469    11.9630   4.057418     2.8628    208.000 4.9089e-02    11.9356    35.5051  1027.9262    26.9940    4.37913         39 0.0000e+00
      21210 164.671455     -0.608    208.464    11.9727   4.058444     2.8631    207.000 4.9149e-02    11.9454    35.5064  1027.9208    26.9931    4.37823         47 0.0000e+00
      21302 164.671499     -0.250    207.448    11.9950   4.061047     2.8646    206.000 4.9278e-02    11.9678    35.5111  1027.9155    26.9924    4.37856         33 0.0000e+00
      21343 164.671519     -0.628    206.439    12.0446   4.066519     2.8670    205.000 4.9379e-02    12.0174    35.5178  1027.9065    26.9881    4.37814         25 0.0000e+00
      21366 164.671530     -0.924    205.439    12.0789   4.070735     2.8681    204.000 4.9232e-02    12.0518    35.5267  1027.9022    26.9884    4.37652         22 0.0000e+00
      21389 164.671541     -1.047    204.434    12.1570   4.079244     2.8670    203.000 4.9247e-02    12.1300    35.5359  1027.8894    26.9804    4.36655         24 0.0000e+00
      21419 164.671556     -0.904    203.428    12.1550   4.078605     2.8648    202.000 4.9459e-02    12.1280    35.5320  1027.8824    26.9778    4.36182         37 0.0000e+00
      21467 164.671579     -0.502    202.415    12.2070   4.084662     2.8639    201.000 4.9391e-02    12.1801    35.5420  1027.8753    26.9755    4.35443         53 0.0000e+00
      21521 164.671605     -0.452    201.409    12.3236   4.098030     2.8606    200.000 4.9229e-02    12.2967    35.5616  1027.8628    26.9679    4.33628         57 0.0000e+00
      21582 164.671634     -0.383    200.398    12.3447   4.100076     2.8530    199.000 4.9233e-02    12.3179    35.5619  1027.8544    26.9641    4.31865         56 0.0000e+00
      21627 164.671656     -0.526    199.386    12.3831   4.104513     2.8510    198.000 4.9197e-02    12.3564    35.5690  1027.8477    26.9620    4.31044         34 0.0000e+00
      21653 164.671669     -0.794    198.380    12.3914   4.105372     2.8495    197.000 4.9059e-02    12.3648    35.5699  1027.8423    26.9611    4.30613         22 0.0000e+00
      21675 164.671679     -1.015    197.381    12.3966   4.105864     2.8492    196.000 4.8998e-02    12.3702    35.5701  1027.8369    26.9602    4.30444         23 0.0000e+00
      21702 164.671692     -1.010    196.378    12.3974   4.105876     2.8492    195.000 4.9133e-02    12.3710    35.5700  1027.8322    26.9599    4.30382         29 0.0000e+00
      21748 164.671714     -0.533    195.365    12.3976   4.105865     2.8471    194.000 4.9392e-02    12.3714    35.5701  1027.8277    26.9599    4.29912         52 0.0000e+00
      21790 164.671735     -0.564    194.354    12.4095   4.107239     2.8484    193.000 4.9087e-02    12.3835    35.5725  1027.8227    26.9594    4.29989         34 0.0000e+00
      21828 164.671753     -0.657    193.350    12.4150   4.107678     2.8492    192.000 4.8955e-02    12.3890    35.5721  1027.8168    26.9580    4.30045         43 0.0000e+00
      21882 164.671779     -0.421    192.339    12.4125   4.107373     2.8479    191.000 4.9164e-02    12.3867    35.5719  1027.8126    26.9583    4.29747         58 0.0000e+00
      21929 164.671802     -0.514    191.330    12.4248   4.108792     2.8486    190.000 4.9105e-02    12.3991    35.5744  1027.8076    26.9578    4.29712         32 0.0000e+00
      21959 164.671816     -0.758    190.327    12.4328   4.109608     2.8485    189.000 4.8921e-02    12.4072    35.5752  1027.8022    26.9569    4.29567         30 0.0000e+00
      21988 164.671830     -0.822    189.318    12.4507   4.111684     2.8472    188.000 4.9216e-02    12.4253    35.5787  1027.7968    26.9561    4.29088         29 0.0000e+00
      22016 164.671844     -0.834    188.305    12.4626   4.112881     2.8472    187.000 4.9110e-02    12.4373    35.5795  1027.7905    26.9543    4.28918         27 0.0000e+00
      22041 164.671856     -0.913    187.302    12.4671   4.113453     2.8468    186.000 4.9320e-02    12.4419    35.5812  1027.7865    26.9547    4.28735         23 0.0000e+00
      22067 164.671868     -0.972    186.303    12.4822   4.115051     2.8468    185.000 4.9313e-02    12.4571    35.5828  1027.7803    26.9530    4.28557         31 0.0000e+00
      22162 164.671914     -0.362    185.288    12.5063   4.118021     2.8479    184.000 4.9024e-02    12.4813    35.5892  1027.7758    26.9531    4.28489         51 0.0000e+00
      22223 164.671943     -0.554    184.282    12.5471   4.122491     2.8452    183.000 4.9202e-02    12.5222    35.5941  1027.7670    26.9489    4.27518         43 0.0000e+00
      22269 164.671966     -0.515    183.269    12.5495   4.122739     2.8441    182.000 4.8918e-02    12.5247    35.5947  1027.7625    26.9489    4.27221         37 0.0000e+00
      22300 164.671981     -0.698    182.268    12.5661   4.124600     2.8448    181.000 4.8976e-02    12.5415    35.5974  1027.7567    26.9476    4.27144         27 0.0000e+00
      22332 164.671996     -0.805    181.264    12.5957   4.127950     2.8429    180.000 4.8969e-02    12.5711    35.6022  1027.7500    26.9455    4.26450         38 0.0000e+00
      22826 164.672234     -0.317    180.251    12.6219   4.130979     2.8420    179.000 4.9097e-02    12.5974    35.6071  1027.7440    26.9440    4.25960         50 0.0000e+00
      23113 164.672373     -0.763    179.239    12.6386   4.132626     2.8427    178.000 4.8839e-02    12.6142    35.6076  1027.7365    26.9411    4.25897         21 0.0000e+00
      23133 164.672383     -1.021    178.240    12.6297   4.131310     2.8427    177.000 4.8788e-02    12.6056    35.6037  1027.7308    26.9398    4.25933         23 0.0000e+00
      23159 164.672395     -1.043    177.233    12.6294   4.131242     2.8415    176.000 4.9002e-02    12.6054    35.6038  1027.7265    26.9399    4.25635         29 0.0000e+00
      23202 164.672416     -0.605    176.224    12.6295   4.131174     2.8418    175.000 4.8996e-02    12.6056    35.6035  1027.7217    26.9396    4.25641         55 0.0000e+00
      23260 164.672444     -0.396    175.211    12.6327   4.131445     2.8419    174.000 4.8983e-02    12.6089    35.6035  1027.7166    26.9390    4.25569         51 0.0000e+00
      23309 164.672467     -0.498    174.208    12.6654   4.135083     2.8460    173.000 4.8932e-02    12.6417    35.6081  1027.7091    26.9361    4.26044         53 0.0000e+00
      23362 164.672493     -0.445    173.196    12.6755   4.136411     2.8488    172.000 4.9098e-02    12.6520    35.6118  1027.7053    26.9368    4.26441         44 0.0000e+00
      23397 164.672509     -0.640    172.193    12.7153   4.140848     2.8535    171.000 4.9014e-02    12.6919    35.6173  1027.6971    26.9332    4.26948         28 0.0000e+00
      23424 164.672523     -0.852    171.185    12.7501   4.144866     2.8564    170.000 4.8885e-02    12.7267    35.6235  1027.6904    26.9311    4.27157         26 0.0000e+00
      23453 164.672536     -0.870    170.182    12.7672   4.146711     2.8564    169.000 4.9243e-02    12.7440    35.6255  1027.6840    26.9292    4.26947         33 0.0000e+00
      23496 164.672557     -0.576    169.169    12.7727   4.147107     2.8567    168.000 4.9089e-02    12.7496    35.6246  1027.6776    26.9273    4.26900         48 0.0000e+00
      23538 164.672578     -0.559    168.163    12.7901   4.149166     2.8592    167.000 4.9043e-02    12.7671    35.6283  1027.6725    26.9267    4.27169         36 0.0000e+00
      23575 164.672595     -0.666    167.156    12.8039   4.150522     2.8612    166.000 4.8838e-02    12.7810    35.6289  1027.6657    26.9244    4.27390         38 0.0000e+00
      23632 164.672623     -0.384    166.145    12.8097   4.151186     2.8602    165.000 4.8866e-02    12.7869    35.6302  1027.6610    26.9242    4.27095         50 0.0000e+00
      23675 164.672644     -0.549    165.137    12.8320   4.153803     2.8606    164.000 4.8991e-02    12.8094    35.6347  1027.6554    26.9232    4.26907         25 0.0000e+00
      23701 164.672656     -0.878    164.137    12.8492   4.155641     2.8602    163.000 4.8936e-02    12.8267    35.6365  1027.6489    26.9211    4.26616         26 0.0000e+00
      23739 164.672675     -0.715    163.131    12.8537   4.156063     2.8595    162.000 4.9360e-02    12.8313    35.6367  1027.6437    26.9204    4.26372         38 0.0000e+00
      23816 164.672712     -0.322    162.118    12.8714   4.158040     2.8598    161.000 4.9034e-02    12.8491    35.6395  1027.6377    26.9189    4.26222         54 0.0000e+00
      23863 164.672734     -0.515    161.111    12.9076   4.162071     2.8601    160.000 4.9039e-02    12.8854    35.6444  1027.6296    26.9155    4.25892         43 0.0000e+00
      23918 164.672761     -0.428    160.104    12.9174   4.162949     2.8597    159.000 4.9146e-02    12.8954    35.6440  1027.6228    26.9131    4.25669         60 0.0000e+00
      23971 164.672786     -0.458    159.096    12.9633   4.168220     2.8573    158.000 4.8856e-02    12.9414    35.6516  1027.6149    26.9098    4.24732         37 0.0000e+00
      24010 164.672805     -0.606    158.094    12.9944   4.171629     2.8506    157.000 4.9146e-02    12.9726    35.6554  1027.6070    26.9064    4.23087         43 0.0000e+00
      24084 164.672841     -0.323    157.080    13.0130   4.173610     2.8445    156.000 4.9263e-02    12.9912    35.6573  1027.6001    26.9041    4.21666         40 0.0000e+00
      24139 164.672868     -0.499    156.078    13.0520   4.178074     2.8397    155.000 4.8908e-02    13.0304    35.6636  1027.5925    26.9011    4.20305         40 0.0000e+00
      24182 164.672888     -0.574    155.064    13.0630   4.179144     2.8366    154.000 4.9051e-02    13.0415    35.6639  1027.5860    26.8991    4.19549         41 0.0000e+00
      24217 164.672905     -0.659    154.055    13.0802   4.181430     2.8363    153.000 4.9058e-02    13.0588    35.6701  1027.5827    26.9003    4.19269         28 0.0000e+00
      24244 164.672918     -0.831    153.053    13.1242   4.186053     2.8341    152.000 4.9102e-02    13.1029    35.6731  1027.5716    26.8937    4.18408         28 0.0000e+00
      24298 164.672944     -0.586    152.048    13.1393   4.187752     2.8285    151.000 4.9182e-02    13.1182    35.6756  1027.5659    26.8925    4.17125         39 0.0000e+00
      24380 164.672984     -0.485    151.038    13.1927   4.194036     2.8234    150.000 4.9073e-02    13.1716    35.6857  1027.5582    26.8895    4.15594         31 0.0000e+00
      24411 164.672998     -0.763    150.033    13.2196   4.196693     2.8198    149.000 4.9243e-02    13.1986    35.6861  1027.5485    26.8843    4.14613         36 0.0000e+00
      24451 164.673018     -0.595    149.024    13.2270   4.197383     2.8156    148.000 4.8731e-02    13.2062    35.6862  1027.5425    26.8828    4.13673         38 0.0000e+00
      24491 164.673037     -0.621    148.018    13.2558   4.200828     2.8138    147.000 4.8957e-02    13.2351    35.6923  1027.5368    26.8816    4.13012         41 0.0000e+00
      24556 164.673069     -0.340    147.009    13.2853   4.203646     2.8119    146.000 4.8921e-02    13.2647    35.6919  1027.5259    26.8753    4.12330         45 0.0000e+00
      24607 164.673093     -0.496    146.004    13.3453   4.211132     2.8096    145.000 4.8987e-02    13.3248    35.7070  1027.5207    26.8746    4.11307         34 0.0000e+00
      24641 164.673110     -0.682    144.995    13.4155   4.218779     2.8040    144.000 4.9020e-02    13.3951    35.7142  1027.5071    26.8657    4.09565         34 0.0000e+00
      24675 164.673126     -0.718    143.986    13.4345   4.220777     2.7985    143.000 4.8876e-02    13.4142    35.7157  1027.4998    26.8630    4.08275         35 0.0000e+00
      24712 164.673144     -0.661    142.981    13.4624   4.223961     2.7976    142.000 4.8957e-02    13.4422    35.7202  1027.4930    26.8606    4.07812         41 0.0000e+00
      24753 164.673164     -0.577    141.967    13.4859   4.226780     2.7945    141.000 4.8870e-02    13.4658    35.7252  1027.4874    26.8597    4.06938         35 0.0000e+00
      24782 164.673178     -0.744    140.964    13.5449   4.233177     2.7919    140.000 4.9101e-02    13.5249    35.7309  1027.4750    26.8518    4.05898         28 0.0000e+00
      24810 164.673191     -0.883    139.961    13.5637   4.235209     2.7884    139.000 4.8807e-02    13.5438    35.7329  1027.4681    26.8494    4.05001         29 0.0000e+00
      24866 164.673218     -0.471    138.951    13.5681   4.235696     2.7827    138.000 4.8963e-02    13.5484    35.7338  1027.4634    26.8492    4.03797         39 0.0000e+00
      24917 164.673243     -0.486    137.937    13.6247   4.242384     2.7795    137.000 4.8966e-02    13.6050    35.7445  1027.4553    26.8457    4.02638         29 0.0000e+00
      24944 164.673256     -0.832    136.937    13.6809   4.248610     2.7767    136.000 4.8891e-02    13.6613    35.7510  1027.4440    26.8390    4.01586         24 0.0000e+00
      24971 164.673269     -0.914    135.934    13.7033   4.250805     2.7710    135.000 4.9043e-02    13.6839    35.7512  1027.4350    26.8344    4.00240         30 0.0000e+00
      25013 164.673289     -0.588    134.920    13.7331   4.254463     2.7672    134.000 4.8891e-02    13.7138    35.7582  1027.4296    26.8336    3.99201         42 0.0000e+00
      25052 164.673308     -0.607    133.917    13.8136   4.264059     2.7597    133.000 4.8839e-02    13.7943    35.7736  1027.4200    26.8286    3.97030         36 0.0000e+00
      25094 164.673328     -0.588    132.909    13.8588   4.268439     2.7484    132.000 4.8938e-02    13.8396    35.7731  1027.4055    26.8187    3.94450         49 0.0000e+00
      25144 164.673352     -0.468    131.896    13.8902   4.272072     2.7450    131.000 4.8798e-02    13.8711    35.7783  1027.3984    26.8161    3.93486         39 0.0000e+00
      25177 164.673368     -0.678    130.891    13.9170   4.274889     2.7445    130.000 4.8797e-02    13.8981    35.7801  1027.3896    26.8118    3.93117         29 0.0000e+00
      25205 164.673382     -0.829    129.887    13.9289   4.276272     2.7454    129.000 4.9103e-02    13.9101    35.7824  1027.3843    26.8111    3.93130         29 0.0000e+00
      25234 164.673396     -0.833    128.879    13.9599   4.279788     2.7440    128.000 4.8922e-02    13.9412    35.7869  1027.3767    26.8080    3.92560         29 0.0000e+00
      25267 164.673411     -0.775    127.875    14.0056   4.285046     2.7354    127.000 4.8939e-02    13.9871    35.7939  1027.3679    26.8037    3.90492         37 0.0000e+00
      25309 164.673432     -0.577    126.863    14.0437   4.289301     2.7232    126.000 4.8777e-02    14.0252    35.7987  1027.3590    26.7993    3.87782         41 0.0000e+00
      25347 164.673450     -0.627    125.859    14.0864   4.294101     2.7088    125.000 4.8839e-02    14.0681    35.8042  1027.3496    26.7945    3.84634         38 0.0000e+00
      25398 164.673474     -0.470    124.847    14.0819   4.293287     2.6951    124.000 4.8884e-02    14.0637    35.8012  1027.3438    26.7931    3.81993         58 0.0000e+00
      25440 164.673495     -0.537    123.840    14.0969   4.295222     2.6901    123.000 4.8884e-02    14.0789    35.8058  1027.3395    26.7933    3.80876         28 0.0000e+00
      25466 164.673507     -0.871    122.842    14.1062   4.296048     2.6854    122.000 4.8703e-02    14.0883    35.8053  1027.3327    26.7910    3.79843         26 0.0000e+00
      25624 164.673583     -0.410    121.834    14.1186   4.297477     2.6783    121.000 4.8918e-02    14.1009    35.8074  1027.3273    26.7900    3.78346         48 0.0000e+00
      27751 164.674609     -0.520    120.826    14.1129   4.296879     2.6787    120.000 4.8893e-02    14.0953    35.8076  1027.3242    26.7913    3.78401         46 0.0000e+00
      28030 164.674744     -0.258    119.813    14.1157   4.297052     2.6771    119.000 4.8812e-02    14.0982    35.8071  1027.3187    26.7903    3.78022         46 0.0000e+00
      28136 164.674795     -0.242    118.799    14.2094   4.308055     2.6701    118.000 4.8905e-02    14.1920    35.8230  1027.3063    26.7825    3.75914         36 0.0000e+00
      28171 164.674812     -0.652    117.802    14.2848   4.316285     2.6659    117.000 4.8842e-02    14.2675    35.8299  1027.2909    26.7717    3.74490         32 0.0000e+00
      28216 164.674833     -0.572    116.796    14.2858   4.316358     2.6626    116.000 4.8943e-02    14.2686    35.8301  1027.2863    26.7716    3.73791         50 0.0000e+00
      28312 164.674880     -0.262    115.778    14.3195   4.320434     2.6610    115.000 4.8776e-02    14.3024    35.8371  1027.2800    26.7698    3.73167         39 0.0000e+00
      28349 164.674898     -0.621    114.775    14.4090   4.330335     2.6481    114.000 4.8658e-02    14.3921    35.8464  1027.2632    26.7577    3.70000         34 0.0000e+00
      28377 164.674911     -0.776    113.765    14.4435   4.334700     2.6373    113.000 4.8730e-02    14.4266    35.8553  1027.2581    26.7571    3.67617         22 0.0000e+00
      28397 164.674921     -1.024    112.762    14.4892   4.339541     2.6297    112.000 4.8773e-02    14.4725    35.8582  1027.2460    26.7494    3.65804         18 0.0000e+00
      28416 164.674930     -1.221    111.759    14.5013   4.340778     2.6266    111.000 4.8611e-02    14.4847    35.8589  1027.2394    26.7473    3.65071         21 0.0000e+00
      28438 164.674941     -1.213    110.759    14.5187   4.342787     2.6241    110.000 4.8688e-02    14.5023    35.8618  1027.2333    26.7457    3.64411         25 0.0000e+00
      28478 164.674960     -0.700    109.746    14.5169   4.342490     2.6220    109.000 4.8714e-02    14.5005    35.8612  1027.2288    26.7456    3.63988         59 0.0000e+00
      28535 164.674987     -0.379    108.731    14.5616   4.347719     2.6229    108.000 4.8816e-02    14.5454    35.8686  1027.2202    26.7416    3.63764         40 0.0000e+00
      28567 164.675003     -0.687    107.728    14.6130   4.353349     2.6223    107.000 4.8759e-02    14.5968    35.8735  1027.2083    26.7342    3.63243         30 0.0000e+00
      28598 164.675018     -0.777    106.723    14.6216   4.354445     2.6220    106.000 4.8521e-02    14.6057    35.8760  1027.2039    26.7342    3.63052         30 0.0000e+00
      28625 164.675031     -0.844    105.711    14.6466   4.357255     2.6231    105.000 4.9073e-02    14.6307    35.8793  1027.1965    26.7313    3.63031         25 0.0000e+00
      28651 164.675043     -0.923    104.710    14.6695   4.359861     2.6256    104.000 4.8895e-02    14.6539    35.8825  1027.1895    26.7287    3.63297         28 0.0000e+00
      28681 164.675058     -0.854    103.707    14.6814   4.361120     2.6294    103.000 4.8943e-02    14.6658    35.8835  1027.1832    26.7269    3.63865         34 0.0000e+00
      28724 164.675079     -0.550    102.693    14.6821   4.361389     2.6322    102.000 4.8836e-02    14.6667    35.8858  1027.1803    26.7284    3.64333         39 0.0000e+00
      28759 164.675095     -0.682    101.691    14.7430   4.368366     2.6399    101.000 4.8765e-02    14.7277    35.8943  1027.1690    26.7217    3.65283         32 0.0000e+00
      28822 164.675126     -0.449    100.679    14.7511   4.369071     2.6457    100.000 4.8867e-02    14.7359    35.8937  1027.1623    26.7194    3.66273         52 0.0000e+00
      28901 164.675164     -0.409     99.668    14.7666   4.371023     2.6504     99.000 4.8880e-02    14.7516    35.8977  1027.1575    26.7191    3.66994         31 0.0000e+00
      28930 164.675178     -0.768     98.665    14.7932   4.373927     2.6526     98.000 4.8882e-02    14.7783    35.9003  1027.1492    26.7152    3.67169         29 0.0000e+00
      28961 164.675193     -0.795     97.660    14.8222   4.377291     2.6576     97.000 4.8802e-02    14.8074    35.9049  1027.1419    26.7124    3.67844         33 0.0000e+00
      28995 164.675209     -0.726     96.653    14.8647   4.382358     2.6641     96.000 4.8840e-02    14.8501    35.9126  1027.1340    26.7090    3.68683         33 0.0000e+00
      29032 164.675227     -0.683     95.650    14.8897   4.384812     2.6700     95.000 4.8774e-02    14.8753    35.9125  1027.1238    26.7033    3.69572         38 0.0000e+00
      29118 164.675268     -0.221     94.627    14.9018   4.386532     2.6735     94.000 4.8843e-02    14.8875    35.9175  1027.1205    26.7045    3.70065         32 0.0000e+00
      29148 164.675283     -0.668     93.634    14.9701   4.394310     2.6775     93.000 4.8728e-02    14.9559    35.9263  1027.1077    26.6962    3.70258         33 0.0000e+00
      29185 164.675301     -0.693     92.626    14.9961   4.397004     2.6839     92.000 4.8867e-02    14.9820    35.9274  1027.0983    26.6913    3.71231         42 0.0000e+00
      29233 164.675324     -0.486     91.615    14.9827   4.395607     2.6876     91.000 4.8865e-02    14.9687    35.9275  1027.0969    26.6943    3.71954         48 0.0000e+00
      29275 164.675344     -0.582     90.613    15.0456   4.402778     2.6930     90.000 4.8778e-02    15.0318    35.9355  1027.0846    26.6865    3.72455         38 0.0000e+00
      29328 164.675370     -0.481     89.605    15.0706   4.405326     2.6971     89.000 4.8890e-02    15.0570    35.9362  1027.0751    26.6815    3.72992         37 0.0000e+00
      29420 164.675414     -0.295     88.589    15.1017   4.409340     2.7029     88.000 4.8837e-02    15.0882    35.9447  1027.0703    26.6811    3.73779         39 0.0000e+00
      29450 164.675429     -0.668     87.594    15.1507   4.414643     2.7084     87.000 4.8810e-02    15.1373    35.9485  1027.0578    26.6731    3.74379         38 0.0000e+00
      29503 164.675454     -0.447     86.579    15.1483   4.414203     2.7126     86.000 4.8973e-02    15.1351    35.9471  1027.0527    26.6725    3.75131         58 0.0000e+00
      29547 164.675475     -0.545     85.573    15.1834   4.418591     2.7181     85.000 4.8988e-02    15.1702    35.9553  1027.0467    26.6710    3.75838         33 0.0000e+00
      29596 164.675499     -0.513     84.570    15.1966   4.419685     2.7207     84.000 4.8897e-02    15.1837    35.9535  1027.0380    26.6666    3.76177         42 0.0000e+00
      29658 164.675529     -0.395     83.557    15.2063   4.421223     2.7246     83.000 4.8803e-02    15.1935    35.9591  1027.0356    26.6687    3.76774         37 0.0000e+00
      29697 164.675548     -0.617     82.559    15.2406   4.424717     2.7281     82.000 4.8870e-02    15.2278    35.9599  1027.0241    26.6616    3.77131         42 0.0000e+00
      29914 164.675652     -0.184     81.543    15.2431   4.425018     2.7307     81.000 4.8732e-02    15.2306    35.9606  1027.0196    26.6616    3.77532         48 0.0000e+00
      30494 164.675932     -0.258     80.538    15.2612   4.427102     2.7318     80.000 4.8730e-02    15.2488    35.9634  1027.0133    26.6597    3.77558         44 0.0000e+00
      30627 164.675996     -0.306     79.533    15.2805   4.429271     2.7361     79.000 4.8866e-02    15.2683    35.9658  1027.0063    26.6572    3.78161         44 0.0000e+00
      30685 164.676024     -0.461     78.521    15.3130   4.433420     2.7403     78.000 4.8876e-02    15.3009    35.9742  1027.0009    26.6563    3.78626         34 0.0000e+00
      30718 164.676040     -0.689     77.524    15.3654   4.439028     2.7431     77.000 4.9028e-02    15.3534    35.9775  1026.9872    26.6471    3.78698         38 0.0000e+00
      30778 164.676069     -0.448     76.512    15.3847   4.440878     2.7443     76.000 4.8827e-02    15.3729    35.9770  1026.9780    26.6423    3.78735         35 0.0000e+00
      30851 164.676104     -0.380     75.502    15.4232   4.446133     2.7457     75.000 4.8904e-02    15.4115    35.9898  1026.9747    26.6435    3.78633         40 0.0000e+00
      30892 164.676124     -0.557     74.502    15.5223   4.456073     2.7472     74.000 4.8755e-02    15.5107    35.9896  1026.9476    26.6209    3.78134         53 0.0000e+00
      30942 164.676148     -0.445     73.485    15.5183   4.456358     2.7493     73.000 4.8914e-02    15.5069    35.9961  1026.9491    26.6268    3.78499         37 0.0000e+00
      30972 164.676163     -0.722     72.483    15.6847   4.475445     2.7555     72.000 4.8887e-02    15.6734    36.0169  1026.9227    26.6050    3.78326         26 0.0000e+00
      31000 164.676176     -0.867     71.485    15.7556   4.482274     2.7570     71.000 4.8806e-02    15.7443    36.0141  1026.8999    26.5868    3.78049         32 0.0000e+00
      31043 164.676197     -0.600     70.471    15.7262   4.479206     2.7588     70.000 4.8885e-02    15.7152    36.0137  1026.9019    26.5931    3.78542         52 0.0000e+00
      31098 164.676223     -0.403     69.466    15.7773   4.484924     2.7640     69.000 4.9048e-02    15.7663    36.0190  1026.8898    26.5855    3.79063         34 0.0000e+00
      31198 164.676272     -0.291     68.454    15.8222   4.490151     2.7685     68.000 4.8917e-02    15.8114    36.0255  1026.8799    26.5801    3.79496         44 0.0000e+00
      31228 164.676286     -0.689     67.452    15.8998   4.498841     2.7729     67.000 4.8837e-02    15.8891    36.0332  1026.8637    26.5683    3.79680         25 0.0000e+00
      31259 164.676301     -0.777     66.450    15.9626   4.505804     2.7772     66.000 4.8804e-02    15.9521    36.0389  1026.8491    26.5582    3.79946         34 0.0000e+00
      31297 164.676320     -0.673     65.439    15.9914   4.508916     2.7845     65.000 4.8813e-02    15.9810    36.0410  1026.8396    26.5531    3.81018         46 0.0000e+00
      31393 164.676366     -0.276     64.429    16.0309   4.514042     2.7921     64.000 4.8874e-02    16.0207    36.0514  1026.8339    26.5520    3.82044         32 0.0000e+00
      31464 164.676400     -0.455     63.422    16.2029   4.533426     2.8035     63.000 4.8814e-02    16.1928    36.0687  1026.8027    26.5254    3.82789         48 0.0000e+00
      31510 164.676422     -0.521     62.411    16.2725   4.541302     2.8132     62.000 4.8875e-02    16.2624    36.0762  1026.7878    26.5149    3.83974         39 0.0000e+00
      31542 164.676438     -0.681     61.408    16.3680   4.551559     2.8220     61.000 4.8919e-02    16.3580    36.0813  1026.7649    26.4966    3.84813         31 0.0000e+00
      31575 164.676453     -0.779     60.410    16.4170   4.556930     2.8291     60.000 4.8738e-02    16.4073    36.0850  1026.7518    26.4878    3.85686         35 0.0000e+00
      31676 164.676502     -0.297     59.396    16.4362   4.559473     2.8368     59.000 4.8905e-02    16.4265    36.0906  1026.7472    26.4877    3.86869         47 0.0000e+00
      31768 164.676547     -0.219     58.381    16.5030   4.567371     2.8582     58.000 4.8951e-02    16.4935    36.1006  1026.7346    26.4796    3.90183         33 0.0000e+00
      31814 164.676569     -0.570     57.376    16.6739   4.588645     2.8824     57.000 4.8988e-02    16.6645    36.1348  1026.7159    26.4655    3.93156         25 0.0000e+00
      31836 164.676579     -0.919     56.381    16.8396   4.607495     2.9137     56.000 4.8787e-02    16.8304    36.1518  1026.6852    26.4392    3.97476         22 0.0000e+00
      31862 164.676592     -0.992     55.376    16.9030   4.613511     2.9401     55.000 4.8764e-02    16.8938    36.1481  1026.6627    26.4212    4.01691         32 0.0000e+00
      31952 164.676636     -0.368     54.359    16.9847   4.623169     2.9707     54.000 4.8871e-02    16.9757    36.1597  1026.6476    26.4106    4.06485         39 0.0000e+00
      32024 164.676670     -0.472     53.358    17.0943   4.636622     3.0034     53.000 4.9070e-02    17.0854    36.1794  1026.6319    26.3994    4.11392         38 0.0000e+00
      32074 164.676694     -0.481     52.352    17.1718   4.643602     3.0231     52.000 4.9111e-02    17.1631    36.1713  1026.6025    26.3745    4.14271         45 0.0000e+00
      32133 164.676722     -0.438     51.343    17.2761   4.657410     3.0408     51.000 4.9090e-02    17.2675    36.1986  1026.5936    26.3700    4.16509         44 0.0000e+00
      33741 164.677498     -0.262     50.337    17.6068   4.692630     3.0896     50.000 4.9333e-02    17.5982    36.2093  1026.5167    26.2978    4.22503         39 0.0000e+00
      33840 164.677546     -0.534     49.328    17.7046   4.703580     3.0903     49.000 4.9235e-02    17.6962    36.2171  1026.4942    26.2798    4.21785         37 0.0000e+00
      33877 164.677564     -0.650     48.324    17.8166   4.715990     3.0918     48.000 4.9338e-02    17.8083    36.2249  1026.4681    26.2581    4.21111         39 0.0000e+00
      33923 164.677586     -0.532     47.322    17.9254   4.728233     3.1005     47.000 4.9181e-02    17.9173    36.2339  1026.4435    26.2380    4.21726         47 0.0000e+00
      33989 164.677618     -0.328     46.303    18.0252   4.740853     3.1071     46.000 4.9190e-02    18.0172    36.2541  1026.4298    26.2287    4.21995         49 0.0000e+00
      34026 164.677636     -0.620     45.308    18.3922   4.782579     3.1221     45.000 4.9154e-02    18.3843    36.2861  1026.3577    26.1613    4.21647         35 0.0000e+00
      34078 164.677661     -0.454     44.294    18.4524   4.787834     3.1312     44.000 4.9626e-02    18.4446    36.2780  1026.3319    26.1399    4.22739         55 0.0000e+00
      34117 164.677679     -0.592     43.286    18.6087   4.809294     3.1465     43.000 4.9339e-02    18.6010    36.3227  1026.3220    26.1345    4.24024         27 0.0000e+00
      34142 164.677691     -0.882     42.277    18.8175   4.830621     3.1636     42.000 4.9396e-02    18.8099    36.3197  1026.2620    26.0790    4.25316         22 0.0000e+00
      34167 164.677704     -0.977     41.284    18.9252   4.843529     3.1748     41.000 4.9407e-02    18.9178    36.3343  1026.2412    26.0626    4.26323         28 0.0000e+00
      34221 164.677729     -0.536     40.276    18.9695   4.850136     3.1885     40.000 4.9570e-02    18.9623    36.3514  1026.2384    26.0642    4.28244         34 0.0000e+00
      34293 164.677764     -0.423     39.266    19.3934   4.896698     3.2156     39.000 4.9316e-02    19.3863    36.3708  1026.1389    25.9693    4.29529         35 0.0000e+00
      34370 164.677801     -0.361     38.258    19.4966   4.902970     3.2290     38.000 4.9245e-02    19.4897    36.3334  1026.0789    25.9137    4.31052         45 0.0000e+00
      34437 164.677834     -0.580     37.246    19.8272   4.934415     3.2498     37.000 4.9485e-02    19.8203    36.3075  1025.9677    25.8071    4.32051         34 0.0000e+00
      34474 164.677851     -0.682     36.239    20.1060   4.964668     3.2748     36.000 4.9321e-02    20.0992    36.3163  1025.8959    25.7398    4.34053         35 0.0000e+00
      34511 164.677870     -0.640     35.241    20.8651   5.038345     3.3337     35.000 4.9601e-02    20.8583    36.2667  1025.6487    25.4972    4.38170         34 0.0000e+00
      34559 164.677893     -0.512     34.237    21.3104   5.077001     3.3853     34.000 4.9824e-02    21.3038    36.2004  1025.4714    25.3245    4.43420         53 0.0000e+00
      34642 164.677933     -0.284     33.213    21.5475   5.100559     3.4246     33.000 4.9736e-02    21.5410    36.1891  1025.3926    25.2502    4.48050         33 0.0000e+00
      34686 164.677954     -0.583     32.223    21.8125   5.123122     3.4460     32.000 5.0001e-02    21.8062    36.1464  1025.2817    25.1437    4.49562         34 0.0000e+00
      34743 164.677981     -0.418     31.218    21.7225   5.113718     3.4521     31.000 5.0162e-02    21.7163    36.1476  1025.3035    25.1697    4.51197         54 0.0000e+00
      35241 164.678222     -0.232     30.201    21.7816   5.114724     3.4721     30.000 5.0118e-02    21.7756    36.1064  1025.2512    25.1218    4.54064         40 0.0000e+00
      35438 164.678317     -0.688     29.202    21.7846   5.114532     3.4776     29.000 4.9848e-02    21.7789    36.1026  1025.2432    25.1180    4.54881         25 0.0000e+00
      35461 164.678328     -0.750     28.199    21.7784   5.113286     3.4780     28.000 5.0150e-02    21.7729    36.0983  1025.2372    25.1164    4.54953         37 0.0000e+00
      35562 164.678376     -0.321     27.188    21.7718   5.112058     3.4763     27.000 4.9966e-02    21.7664    36.0945  1025.2318    25.1153    4.54664         39 0.0000e+00
      35611 164.678400     -0.503     26.180    21.7673   5.111113     3.4767     26.000 5.0038e-02    21.7621    36.0911  1025.2261    25.1139    4.54723         47 0.0000e+00
      35658 164.678422     -0.506     25.176    21.7659   5.110745     3.4782     25.000 4.9824e-02    21.7609    36.0897  1025.2211    25.1132    4.54922         38 0.0000e+00
      35697 164.678441     -0.628     24.166    21.7650   5.110149     3.4839     24.000 5.0036e-02    21.7602    36.0861  1025.2142    25.1107    4.55809         41 0.0000e+00
      35781 164.678482     -0.311     23.160    21.7638   5.109666     3.4832     23.000 5.0199e-02    21.7593    36.0835  1025.2082    25.1090    4.55645         33 0.0000e+00
      35842 164.678511     -0.469     22.151    21.7628   5.109130     3.4840     22.000 5.0057e-02    21.7585    36.0805  1025.2018    25.1069    4.55737         39 0.0000e+00
      35890 164.678535     -0.498     21.143    21.7606   5.108462     3.4826     21.000 4.9930e-02    21.7564    36.0774  1025.1957    25.1051    4.55458         56 0.0000e+00
      35942 164.678560     -0.464     20.135    21.7546   5.106998     3.4819     20.000 4.9855e-02    21.7507    36.0711  1025.1882    25.1019    4.55357         42 0.0000e+00
      36001 164.678588     -0.388     19.128    21.7479   5.105455     3.4841     19.000 4.9866e-02    21.7441    36.0648  1025.1810    25.0990    4.55716         50 0.0000e+00
      36054 164.678613     -0.479     18.121    21.7481   5.105102     3.4850     18.000 4.9809e-02    21.7445    36.0622  1025.1746    25.0969    4.55809         39 0.0000e+00
      36093 164.678633     -0.622     17.120    21.7482   5.104658     3.4913     17.000 4.9879e-02    21.7448    36.0590  1025.1677    25.0944    4.56792         40 0.0000e+00
      36195 164.678682     -0.255     16.101    21.7513   5.104626     3.4907     16.000 4.9934e-02    21.7482    36.0564  1025.1605    25.0915    4.56604         39 0.0000e+00
      36244 164.678705     -0.510     15.111    21.7482   5.103235     3.4912     15.000 4.9991e-02    21.7453    36.0483  1025.1509    25.0861    4.56672         34 0.0000e+00
      36300 164.678732     -0.442     14.100    21.7151   5.097109     3.4884     14.000 5.0185e-02    21.7123    36.0277  1025.1401    25.0797    4.56467         42 0.0000e+00
      36370 164.678766     -0.399     13.095    21.6992   5.093867     3.4867     13.000 5.0025e-02    21.6967    36.0156  1025.1309    25.0748    4.56286         38 0.0000e+00
      36412 164.678786     -0.608     12.089    21.6771   5.088324     3.4904     12.000 4.9672e-02    21.6747    35.9903  1025.1135    25.0617    4.57074         34 0.0000e+00
      36505 164.678831     -0.258     11.067    21.6418   5.081575     3.4940     11.000 4.9900e-02    21.6397    35.9665  1025.1008    25.0534    4.57945         35 0.0000e+00
      36534 164.678845     -0.697     10.071    21.6189   5.077099     3.4937     10.000 5.0022e-02    21.6169    35.9504  1025.0906    25.0474    4.58061         31 0.0000e+00
      36571 164.678863     -0.686      9.067    21.6084   5.075222     3.4922      9.000 4.9906e-02    21.6066    35.9445  1025.0847    25.0459    4.57839         40 0.0000e+00
      36622 164.678887     -0.460      8.061    21.5880   5.071412     3.4938      8.000 4.9880e-02    21.5864    35.9316  1025.0762    25.0417    4.58249         41 0.0000e+00
      36705 164.678928     -0.264      7.055    21.5831   5.070594     3.4973      7.000 4.9982e-02    21.5818    35.9295  1025.0716    25.0413    4.58798         32 0.0000e+00
      36757 164.678953     -0.530      6.053    21.5764   5.068899     3.5005      6.000 4.9932e-02    21.5752    35.9220  1025.0634    25.0374    4.59344         38 0.0000e+00
      36807 164.678977     -0.480      5.036    21.5950   5.068998     3.5026      5.000 5.0192e-02    21.5940    35.9076  1025.0429    25.0213    4.59515         56 0.0000e+00
      36853 164.678999     -0.514      4.025    21.6184   5.068963     3.5051      4.000 4.9903e-02    21.6176    35.8881  1025.0172    24.9999    4.59714         32 0.0000e+00
      36884 164.679014     -0.744      3.022    21.6248   5.068846     3.4994      3.000 4.9939e-02    21.6242    35.8822  1025.0065    24.9936    4.58697         30 0.0000e+00
      37049 164.679093     -0.330      2.024    21.6207   5.068836     3.5013      2.000 4.9707e-02    21.6203    35.8859  1025.0061    24.9975    4.58969         40 0.0000e+00
      38680 164.679880     -0.565      1.037    21.6221   5.068878     3.5019      1.000 4.9572e-02    21.6219    35.8854  1025.0011    24.9966    4.59018         27 0.0000e+00
