* Sea-Bird SBE 9 Data File:
* FileName = D:\ACEX\brutos\MCTV012.hex
* Software Version Seasave V 7.17
* Temperature SN = 4821
* Conductivity SN = 3367
* Number of Bytes Per Scan = 21
* Number of Voltage Words = 3
* Number of Scans Averaged by the Deck Unit = 1
* System UpLoad Time = Jun 14 2012 15:12:09
** H38 
** NHo Cruzeiro do Sul 
** 222 
** MCTV ACEx 
**   012
**   27 00.66S
**   046  19.71W
**   14/06/2012 18:11Z
**   662
** 9P46375-0882 
**   1T Germano Filho
# nquan = 16
# nvalues = 594                         
# units = specified
# name 0 = scan: Scan Count
# name 1 = timeJ: Julian Days
# name 2 = dz/dtM: Descent Rate [m/s]
# name 3 = prDM: Pressure, Digiquartz [db]
# name 4 = t090C: Temperature [ITS-90, deg C]
# name 5 = c0S/m: Conductivity [S/m]
# name 6 = sbeox0V: Oxygen Voltage, SBE 43
# name 7 = depSM: Depth [salt water, m]
# name 8 = flSP: Fluorescence, Seapoint
# name 9 = potemp090C: Potential Temperature [ITS-90, deg C]
# name 10 = sal00: Salinity [PSU]
# name 11 = density00: Density [density, Kg/m^3]
# name 12 = sigma-é00: Density [sigma-theta, Kg/m^3]
# name 13 = sbeox0ML/L: Oxygen, SBE 43 [ml/l], WS = 2
# name 14 = nbin: number of scans per bin
# name 15 = flag: flag
# span 0 =      49338,      69849       
# span 1 = 166.657230, 166.667122       
# span 2 =     -1.599,     -0.066       
# span 3 =      1.040,    598.748       
# span 4 =     5.8294,    23.2831       
# span 5 =   3.432507,   5.426537       
# span 6 =     2.0549,     3.4981       
# span 7 =      1.000,    594.000       
# span 8 = 4.5558e-02, 4.3497e-01       
# span 9 =     5.7771,    23.2829       
# span 10 =    34.3617,    37.3043      
# span 11 =  1025.5990,  1030.2843      
# span 12 =    25.5946,    27.5509      
# span 13 =    3.22722,    4.43473      
# span 14 =          7,         68      
# span 15 = 0.0000e+00, 0.0000e+00      
# interval = meters: 1                  
# start_time = Jun 14 2012 15:12:09
# bad_flag = -9.990e-29
# sensor 0 = Frequency  0  temperature, 4821, 05-sep-07
# sensor 1 = Frequency  1  conductivity, 3367, 05-mar-08, cpcor = -9.5700e-08
# sensor 2 = Frequency  2  pressure, 106018, 28-sep-07
# sensor 3 = Extrnl Volt  0  Oxygen, SBE, primary, 0802, 30-nov-07
# sensor 4 = Extrnl Volt  2  Fluorometer, Seapoint, primary
# sensor 5 = Extrnl Volt  4  altimeter
# datcnv_date = Jun 14 2012 16:11:48, 7.17
# datcnv_in = D:\ACEX\brutos\MCTV012.hex D:\ACEX\arqconfig\AC0882mod2.con
# datcnv_skipover = 2062
# filter_date = Jun 14 2012 16:13:01, 7.17
# filter_in = D:\ACEX\dat cnv\MCTV012.cnv
# filter_low_pass_tc_A = 0.150
# filter_low_pass_tc_B = 0.000
# filter_low_pass_A_vars = prDM
# filter_low_pass_B_vars = c0S/m
# alignctd_date = Jun 14 2012 16:14:18, 7.17
# alignctd_in = D:\ACEX\filter\MCTV012.cnv
# alignctd_adv = c0S/m 0.073, sbeox0V 2.000                                                                                                                                                                                          
# wildedit_date = Jun 14 2012 16:14:50, 7.17
# wildedit_in = D:\ACEX\align\MCTV012.cnv
# wildedit_pass1_nstd = 2.0
# wildedit_pass2_nstd = 20.0
# wildedit_pass2_mindelta = 1.000e+002
# wildedit_npoint = 1000
# wildedit_vars = dz/dtM prDM t090C c0S/m sbeox0V flSP
# wildedit_excl_bad_scans = yes
# celltm_date = Jun 14 2012 16:15:16, 7.17
# celltm_in = D:\ACEX\wildedit\MCTV012.cnv
# celltm_alpha = 0.0300, 0.0000
# celltm_tau = 7.0000, 0.0000
# celltm_temp_sensor_use_for_cond = primary, 
# loopedit_date = Jun 14 2012 16:15:35, 7.17
# loopedit_in = D:\ACEX\celltm\MCTV012.cnv
# loopedit_minVelocity = 0.250                                                                                            
# loopedit_surfaceSoak: minDepth = 5.0, maxDepth = 20, useDeckPress = 1                                                   
# loopedit_excl_bad_scans = yes
# Derive_date = Jun 14 2012 16:15:57, 7.17
# Derive_in = D:\ACEX\loopedit\MCTV012.cnv D:\ACEX\arqconfig\AC0882.con
# derive_time_window_docdt = seconds: 2
# binavg_date = Jun 14 2012 16:16:22, 7.17
# binavg_in = D:\ACEX\derive\MCTV012.cnv
# binavg_bintype = meters
# binavg_binsize = 1
# binavg_excl_bad_scans = yes
# binavg_skipover = 0
# binavg_surface_bin = no, min = 0.000, max = 0.000, value = 0.000
# split_date = Jun 14 2012 16:17:29, 7.17
# split_in = D:\ACEX\binavg\MCTV012.cnv
# split_excl_bad_scans = yes
# file_type = ascii
*END*
      49338 166.657230     -0.066    598.748     5.8364   3.443927     2.1507    594.000 4.8115e-02     5.7839    34.9465  1030.2758    27.5379    3.54805         34 0.0000e+00
      49662 166.657387     -0.434    597.746     5.8294   3.444599     2.0739    593.000 4.8640e-02     5.7771    34.9618  1030.2843    27.5509    3.35958         61 0.0000e+00
      50178 166.657635     -0.289    596.727     5.8446   3.445261     2.0549    592.000 4.8416e-02     5.7924    34.9541  1030.2714    27.5428    3.31158         36 0.0000e+00
      50177 166.657635     -0.722    595.723     5.8298   3.444218     2.0683    591.000 4.8498e-02     5.7777    34.9581  1030.2721    27.5478    3.34510         32 0.0000e+00
      50207 166.657649     -0.797    594.718     5.8319   3.443010     2.0905    590.000 4.8713e-02     5.7799    34.9427  1030.2551    27.5354    3.39905         30 0.0000e+00
      50241 166.657666     -0.748    593.706     5.8380   3.445038     2.1039    589.000 4.9137e-02     5.7860    34.9599  1030.2631    27.5482    3.43048         37 0.0000e+00
      50277 166.657683     -0.652    592.695     5.8372   3.441804     2.1095    588.000 4.8588e-02     5.7853    34.9247  1030.2310    27.5205    3.44465         35 0.0000e+00
      50312 166.657700     -0.706    591.685     5.8433   3.437382     2.1224    587.000 4.7968e-02     5.7916    34.8690  1030.1817    27.4756    3.47661         35 0.0000e+00
      50344 166.657716     -0.725    590.680     5.8463   3.434142     2.1500    586.000 4.9098e-02     5.7947    34.8299  1030.1460    27.4443    3.54419         31 0.0000e+00
      50380 166.657733     -0.707    589.665     5.8531   3.433422     2.1848    585.000 4.8164e-02     5.8016    34.8153  1030.1289    27.4319    3.62858         36 0.0000e+00
      50410 166.657748     -0.739    588.651     5.8860   3.432507     2.2131    584.000 4.8053e-02     5.8345    34.7718  1030.0855    27.3934    3.69576         25 0.0000e+00
      50433 166.657759     -0.936    587.650     5.9478   3.432909     2.2383    583.000 4.9170e-02     5.8961    34.7137  1030.0266    27.3397    3.75277         23 0.0000e+00
      50457 166.657770     -1.045    586.638     5.9604   3.433962     2.2598    582.000 4.8657e-02     5.9088    34.7132  1030.0198    27.3376    3.80380         23 0.0000e+00
      50481 166.657781     -1.015    585.634     5.9608   3.434074     2.2691    581.000 4.9301e-02     5.9093    34.7145  1030.0162    27.3386    3.82595         24 0.0000e+00
      50505 166.657793     -1.027    584.616     5.9673   3.434456     2.2694    580.000 4.8838e-02     5.9158    34.7127  1030.0093    27.3364    3.82550         24 0.0000e+00
      50526 166.657803     -1.042    583.612     6.0052   3.436772     2.2679    579.000 4.9010e-02     5.9537    34.7006  1029.9898    27.3220    3.81837         21 0.0000e+00
      50547 166.657814     -1.136    582.603     6.0765   3.437921     2.2716    578.000 4.9184e-02     6.0248    34.6414  1029.9287    27.2662    3.82219         21 0.0000e+00
      50569 166.657824     -1.140    581.595     6.1103   3.438466     2.2770    577.000 4.8086e-02     6.0586    34.6137  1029.8975    27.2399    3.83234         22 0.0000e+00
      50595 166.657837     -1.026    580.587     6.1012   3.437783     2.2757    576.000 4.8091e-02     6.0496    34.6158  1029.8959    27.2428    3.82949         31 0.0000e+00
      50627 166.657852     -0.781    579.573     6.1203   3.438418     2.2742    575.000 4.7963e-02     6.0688    34.6040  1029.8793    27.2310    3.82400         32 0.0000e+00
      50657 166.657866     -0.782    578.559     6.1919   3.446611     2.2825    574.000 4.8959e-02     6.1401    34.6236  1029.8799    27.2373    3.83673         25 0.0000e+00
      50680 166.657877     -0.943    577.546     6.2448   3.453872     2.3065    573.000 4.9102e-02     6.1928    34.6516  1029.8897    27.2526    3.88914         23 0.0000e+00
      50699 166.657887     -1.120    576.553     6.3312   3.456774     2.3262    572.000 4.7590e-02     6.2790    34.5970  1029.8299    27.1983    3.92997         18 0.0000e+00
      50722 166.657898     -1.176    575.542     6.3588   3.451498     2.3343    571.000 4.7518e-02     6.3066    34.5109  1029.7538    27.1267    3.94887         24 0.0000e+00
      50754 166.657913     -0.847    574.532     6.3465   3.448509     2.3206    570.000 4.8437e-02     6.2945    34.4906  1029.7350    27.1122    3.91678         40 0.0000e+00
      50794 166.657933     -0.607    573.516     6.4691   3.458319     2.2994    569.000 4.8345e-02     6.4167    34.4766  1029.7017    27.0852    3.85439         37 0.0000e+00
      50828 166.657949     -0.671    572.501     6.5913   3.467305     2.2949    568.000 4.7858e-02     6.5385    34.4540  1029.6616    27.0513    3.83303         27 0.0000e+00
      50853 166.657961     -0.866    571.499     6.6374   3.471954     2.2946    567.000 4.8047e-02     6.5845    34.4597  1029.6547    27.0496    3.82763         26 0.0000e+00
      50878 166.657973     -0.977    570.488     6.6496   3.474109     2.2936    566.000 4.8078e-02     6.5967    34.4718  1029.6578    27.0575    3.82320         24 0.0000e+00
      50901 166.657984     -1.010    569.480     6.6951   3.479420     2.2898    565.000 4.8347e-02     6.6420    34.4854  1029.6572    27.0622    3.80934         22 0.0000e+00
      50924 166.657995     -1.064    568.471     6.7635   3.481536     2.2820    564.000 4.8802e-02     6.7104    34.4407  1029.6075    27.0177    3.78526         23 0.0000e+00
      50948 166.658007     -1.042    567.465     6.8097   3.479778     2.2729    563.000 4.8839e-02     6.7565    34.3758  1029.5451    26.9603    3.76072         25 0.0000e+00
      50974 166.658019     -0.973    566.454     6.8189   3.479285     2.2624    562.000 4.8795e-02     6.7658    34.3617  1029.5281    26.9479    3.73449         27 0.0000e+00
      51001 166.658032     -0.883    565.438     6.8316   3.485122     2.2534    561.000 4.8889e-02     6.7785    34.4137  1029.5624    26.9872    3.71034         26 0.0000e+00
      51024 166.658043     -0.968    564.434     6.8443   3.499333     2.2548    560.000 4.8269e-02     6.7911    34.5577  1029.6689    27.0990    3.70858         21 0.0000e+00
      51047 166.658055     -1.065    563.431     6.8564   3.499303     2.2650    559.000 4.8909e-02     6.8032    34.5457  1029.6532    27.0879    3.73161         27 0.0000e+00
      51078 166.658069     -0.863    562.415     6.8598   3.501595     2.2745    558.000 4.7804e-02     6.8067    34.5680  1029.6655    27.1050    3.75306         32 0.0000e+00
      51109 166.658085     -0.771    561.405     6.8917   3.509023     2.2800    557.000 4.8392e-02     6.8385    34.6181  1029.6954    27.1401    3.76159         31 0.0000e+00
      51139 166.658099     -0.780    560.393     6.9307   3.514531     2.2917    556.000 4.8900e-02     6.8774    34.6400  1029.7022    27.1521    3.78507         26 0.0000e+00
      51165 166.658111     -0.885    559.381     7.0294   3.519202     2.3091    555.000 4.7212e-02     6.9758    34.5929  1029.6458    27.1014    3.81885         22 0.0000e+00
      51185 166.658121     -1.057    558.378     7.1096   3.522835     2.3231    554.000 4.7870e-02     7.0558    34.5531  1029.5979    27.0589    3.84556         20 0.0000e+00
      51204 166.658130     -1.204    557.371     7.1340   3.523774     2.3303    553.000 4.8654e-02     7.0802    34.5395  1029.5790    27.0449    3.86018         19 0.0000e+00
      51224 166.658140     -1.232    556.362     7.1450   3.518673     2.3288    552.000 4.7903e-02     7.0914    34.4734  1029.5210    26.9912    3.85701         23 0.0000e+00
      51247 166.658151     -1.150    555.352     7.1503   3.516185     2.3169    551.000 4.8252e-02     7.0968    34.4415  1029.4906    26.9654    3.82844         21 0.0000e+00
      51275 166.658165     -0.968    554.342     7.1402   3.508118     2.2933    550.000 4.8734e-02     7.0869    34.3640  1029.4269    26.9057    3.77486         35 0.0000e+00
      51303 166.658178     -0.743    553.328     7.2311   3.529038     2.2752    549.000 4.8403e-02     7.1774    34.5021  1029.5166    27.0018    3.72035         20 0.0000e+00
      51323 166.658188     -1.035    552.324     7.3602   3.541306     2.2772    548.000 4.7302e-02     7.3061    34.5078  1029.4967    26.9882    3.71370         21 0.0000e+00
      51343 166.658197     -1.198    551.309     7.3721   3.549072     2.2864    547.000 4.8058e-02     7.3180    34.5808  1029.5474    27.0440    3.73214         17 0.0000e+00
      51361 166.658206     -1.253    550.305     7.3937   3.551776     2.2943    546.000 4.9323e-02     7.3396    34.5891  1029.5461    27.0474    3.74821         20 0.0000e+00
      51379 166.658215     -1.323    549.294     7.3990   3.551553     2.2994    545.000 5.0513e-02     7.3450    34.5819  1029.5350    27.0410    3.75951         16 0.0000e+00
      51397 166.658223     -1.347    548.291     7.4031   3.556306     2.2990    544.000 4.8399e-02     7.3491    34.6299  1029.5674    27.0782    3.75642         18 0.0000e+00
      51417 166.658233     -1.302    547.283     7.4118   3.550782     2.2915    543.000 4.9039e-02     7.3580    34.5618  1029.5082    27.0233    3.73923         23 0.0000e+00
      51444 166.658246     -1.059    546.273     7.4213   3.545519     2.2750    542.000 5.0441e-02     7.3675    34.4959  1029.4506    26.9701    3.70064         32 0.0000e+00
      51482 166.658264     -0.659    545.259     7.4318   3.556758     2.2590    541.000 4.8869e-02     7.3780    34.6076  1029.5318    27.0565    3.65921         37 0.0000e+00
      51520 166.658283     -0.611    544.252     7.4527   3.566616     2.2671    540.000 4.8175e-02     7.3989    34.6942  1029.5918    27.1217    3.67387         34 0.0000e+00
      51550 166.658297     -0.761    543.236     7.4800   3.571924     2.2866    539.000 4.7914e-02     7.4261    34.7250  1029.6071    27.1420    3.71603         24 0.0000e+00
      51573 166.658308     -0.949    542.230     7.5076   3.571469     2.2996    538.000 4.8920e-02     7.4537    34.6931  1029.5732    27.1129    3.74457         22 0.0000e+00
      51594 166.658318     -1.084    541.220     7.5198   3.570495     2.3019    537.000 4.7920e-02     7.4660    34.6708  1029.5493    27.0937    3.74897         21 0.0000e+00
      51614 166.658328     -1.177    540.215     7.5396   3.566676     2.2997    536.000 4.8827e-02     7.4859    34.6104  1029.4944    27.0433    3.74299         20 0.0000e+00
      51636 166.658339     -1.150    539.206     7.5601   3.582980     2.2976    535.000 4.8194e-02     7.5063    34.7667  1029.6090    27.1633    3.73209         23 0.0000e+00
      51661 166.658351     -1.047    538.196     7.5989   3.592290     2.3059    534.000 4.7710e-02     7.5450    34.8291  1029.6472    27.2068    3.74633         26 0.0000e+00
      51688 166.658364     -0.926    537.188     7.6309   3.598306     2.3353    533.000 4.7746e-02     7.5769    34.8627  1029.6639    27.2285    3.81095         29 0.0000e+00
      51719 166.658379     -0.801    536.177     7.6526   3.600018     2.3588    532.000 4.8311e-02     7.5987    34.8600  1029.6537    27.2232    3.86347         33 0.0000e+00
      51751 166.658394     -0.763    535.165     7.6826   3.599011     2.3593    531.000 4.7746e-02     7.6286    34.8197  1029.6130    27.1872    3.86242         30 0.0000e+00
      51779 166.658408     -0.794    534.153     7.7168   3.600516     2.3559    530.000 4.8428e-02     7.6628    34.8024  1029.5894    27.1686    3.85150         23 0.0000e+00
      51801 166.658418     -0.995    533.150     7.7884   3.609129     2.3656    529.000 4.7966e-02     7.7343    34.8243  1029.5907    27.1753    3.86690         22 0.0000e+00
      51824 166.658429     -1.107    532.141     7.8233   3.616867     2.3828    528.000 4.8360e-02     7.7691    34.8732  1029.6189    27.2087    3.90201         23 0.0000e+00
      51849 166.658441     -0.977    531.133     7.8428   3.614679     2.3848    527.000 4.8277e-02     7.7886    34.8308  1029.5780    27.1725    3.90552         24 0.0000e+00
      51873 166.658453     -0.982    530.121     7.8812   3.616833     2.3893    526.000 4.8455e-02     7.8270    34.8163  1029.5560    27.1554    3.91241         22 0.0000e+00
      51893 166.658463     -1.084    529.111     7.9216   3.631506     2.4136    525.000 4.7641e-02     7.8673    34.9340  1029.6369    27.2419    3.96174         19 0.0000e+00
      51912 166.658472     -1.215    528.103     7.9546   3.634900     2.4294    524.000 4.7092e-02     7.9002    34.9380  1029.6303    27.2401    3.99465         18 0.0000e+00
      51931 166.658481     -1.300    527.097     7.9885   3.632770     2.4276    523.000 4.8677e-02     7.9342    34.8820  1029.5765    27.1910    3.98851         19 0.0000e+00
      51951 166.658491     -1.255    526.092     8.0063   3.629498     2.4104    522.000 4.8342e-02     7.9521    34.8298  1029.5282    27.1474    3.94793         22 0.0000e+00
      51982 166.658505     -0.938    525.079     8.0119   3.623495     2.3746    521.000 4.7874e-02     7.9577    34.7606  1029.4687    27.0922    3.86599         36 0.0000e+00
      52016 166.658522     -0.664    524.062     8.1545   3.632375     2.3432    520.000 4.8630e-02     8.1000    34.7152  1029.4055    27.0351    3.78205         29 0.0000e+00
      52041 166.658534     -0.870    523.060     8.3510   3.638422     2.3394    519.000 4.8183e-02     8.2959    34.5869  1029.2688    26.9047    3.75964         26 0.0000e+00
      52070 166.658548     -0.893    522.051     8.3996   3.636076     2.3335    518.000 4.9064e-02     8.3445    34.5150  1029.2001    26.8409    3.74336         28 0.0000e+00
      52100 166.658563     -0.816    521.040     8.4972   3.643178     2.3114    517.000 4.7281e-02     8.4419    34.4954  1029.1642    26.8106    3.68474         31 0.0000e+00
      52131 166.658577     -0.762    520.027     8.6069   3.641761     2.2828    516.000 4.7637e-02     8.5514    34.3744  1029.0470    26.6988    3.61282         26 0.0000e+00
      52156 166.658589     -0.882    519.020     8.6733   3.652190     2.2679    515.000 4.8821e-02     8.6175    34.4202  1029.0672    26.7244    3.57202         24 0.0000e+00
      52179 166.658600     -1.027    518.013     8.7417   3.683953     2.2687    514.000 4.8690e-02     8.6856    34.6877  1029.2599    26.9235    3.56202         24 0.0000e+00
      52203 166.658612     -1.035    517.001     8.7670   3.683639     2.2799    513.000 4.7601e-02     8.7110    34.6602  1029.2296    26.8979    3.58549         22 0.0000e+00
      52227 166.658624     -1.014    515.997     8.7873   3.685228     2.2850    512.000 4.7904e-02     8.7313    34.6575  1029.2196    26.8926    3.59512         26 0.0000e+00
      52256 166.658638     -0.908    514.984     8.7926   3.676772     2.2729    511.000 4.8408e-02     8.7367    34.5643  1029.1414    26.8187    3.56887         35 0.0000e+00
      52287 166.658653     -0.730    513.976     8.8126   3.698682     2.2711    510.000 4.8786e-02     8.7567    34.7748  1029.2977    26.9805    3.55808         26 0.0000e+00
      52316 166.658667     -0.871    512.968     8.8365   3.722001     2.3327    509.000 4.8683e-02     8.7803    34.9964  1029.4620    27.1505    3.68988         31 0.0000e+00
      52349 166.658682     -0.729    511.956     8.8403   3.726378     2.4171    508.000 4.7787e-02     8.7842    35.0391  1029.4901    27.1833    3.87905         31 0.0000e+00
      52376 166.658696     -0.815    510.948     8.9389   3.736073     2.4707    507.000 4.8313e-02     8.8825    35.0441  1029.4727    27.1716    3.99091         23 0.0000e+00
      52399 166.658707     -0.988    509.942     9.1318   3.756725     2.5055    506.000 4.7776e-02     9.0748    35.0709  1029.4560    27.1616    4.05128         24 0.0000e+00
      52425 166.658719     -0.995    508.935     9.2661   3.771445     2.5259    505.000 4.9261e-02     9.2088    35.0928  1029.4452    27.1570    4.08419         29 0.0000e+00
      52459 166.658736     -0.755    507.920     9.3274   3.776574     2.5267    504.000 4.8801e-02     9.2699    35.0866  1029.4252    27.1421    4.08017         37 0.0000e+00
      52494 166.658752     -0.681    506.911     9.4004   3.779555     2.5074    503.000 4.9035e-02     9.3428    35.0467  1029.3767    27.0989    4.03113         32 0.0000e+00
      52523 166.658767     -0.782    505.896     9.6142   3.792036     2.4962    502.000 4.8830e-02     9.5560    34.9680  1029.2733    27.0021    3.98930         25 0.0000e+00
      52547 166.658778     -0.933    504.900     9.7786   3.808294     2.4834    501.000 4.7615e-02     9.7199    34.9762  1029.2459    26.9810    3.94607         23 0.0000e+00
      52570 166.658789     -1.035    503.889     9.8782   3.808919     2.4616    500.000 4.7772e-02     9.8194    34.8869  1029.1541    26.8944    3.89133         24 0.0000e+00
      52598 166.658803     -0.948    502.878     9.9238   3.794286     2.4219    499.000 4.7619e-02     9.8650    34.6941  1028.9915    26.7361    3.80396         31 0.0000e+00
      52633 166.658820     -0.734    501.868     9.9001   3.780611     2.3611    498.000 4.7714e-02     9.8417    34.5777  1028.9006    26.6490    3.67347         39 0.0000e+00
      52673 166.658839     -0.598    500.855    10.0329   3.791741     2.3031    497.000 4.6731e-02     9.9741    34.5649  1028.8623    26.6166    3.53499         34 0.0000e+00
      52702 166.658853     -0.751    499.856    10.0839   3.806128     2.2832    496.000 4.7139e-02    10.0249    34.6630  1028.9248    26.6845    3.48459         26 0.0000e+00
      52726 166.658864     -0.938    498.839    10.1445   3.829588     2.3249    495.000 4.7772e-02    10.0853    34.8438  1029.0498    26.8154    3.56709         22 0.0000e+00
      52749 166.658875     -1.033    497.834    10.1798   3.868309     2.4237    494.000 4.7031e-02    10.1204    35.2036  1029.3186    27.0903    3.77228         23 0.0000e+00
      52773 166.658887     -1.027    496.821    10.2771   3.883343     2.5121    493.000 4.7218e-02    10.2174    35.2625  1029.3420    27.1194    3.95584         24 0.0000e+00
      52797 166.658899     -1.000    495.818    10.3227   3.888804     2.5681    492.000 4.7009e-02    10.2630    35.2742  1029.3382    27.1206    4.07354         24 0.0000e+00
      52822 166.658911     -0.987    494.807    10.4041   3.898511     2.6044    491.000 4.7518e-02    10.3441    35.2942  1029.3341    27.1220    4.14438         27 0.0000e+00
      52853 166.658925     -0.871    493.801    10.4870   3.906762     2.6297    490.000 4.7442e-02    10.4269    35.2979  1029.3171    27.1103    4.19155         34 0.0000e+00
      52897 166.658947     -0.543    492.786    10.5158   3.909831     2.6498    489.000 4.6936e-02    10.4557    35.3015  1029.3100    27.1080    4.23213         45 0.0000e+00
      52934 166.658965     -0.610    491.768    10.5952   3.918383     2.6600    488.000 4.7125e-02    10.5349    35.3115  1029.2984    27.1019    4.24617         24 0.0000e+00
      52959 166.658977     -0.842    490.787    10.6177   3.920963     2.6652    487.000 4.6668e-02    10.5575    35.3161  1029.2934    27.1015    4.25480         26 0.0000e+00
      52982 166.658988     -0.995    489.750    10.6600   3.925877     2.6681    486.000 4.6841e-02    10.5998    35.3253  1029.2879    27.1011    4.25656         17 0.0000e+00
      53001 166.658997     -1.150    488.758    10.6825   3.927858     2.6702    485.000 4.7637e-02    10.6223    35.3239  1029.2782    27.0960    4.25850         21 0.0000e+00
      53023 166.659008     -1.166    487.748    10.6995   3.929725     2.6726    484.000 4.7822e-02    10.6394    35.3267  1029.2727    27.0951    4.26157         24 0.0000e+00
      53051 166.659021     -0.973    486.737    10.7188   3.931711     2.6754    483.000 4.6939e-02    10.6587    35.3286  1029.2660    27.0931    4.26526         33 0.0000e+00
      53093 166.659041     -0.612    485.725    10.7293   3.932857     2.6789    482.000 4.7628e-02    10.6693    35.3304  1029.2610    27.0927    4.27116         47 0.0000e+00
      53138 166.659063     -0.513    484.715    10.7583   3.935905     2.6818    481.000 4.6920e-02    10.6984    35.3335  1029.2533    27.0898    4.27425         36 0.0000e+00
      53171 166.659079     -0.679    483.712    10.7718   3.937326     2.6842    480.000 4.7095e-02    10.7119    35.3352  1029.2476    27.0887    4.27758         30 0.0000e+00
      53196 166.659091     -0.866    482.694    10.7841   3.938549     2.6863    479.000 4.6552e-02    10.7243    35.3361  1029.2414    27.0872    4.28033         24 0.0000e+00
      53218 166.659102     -1.030    481.685    10.7877   3.938880     2.6870    478.000 4.7798e-02    10.7280    35.3364  1029.2365    27.0868    4.28084         18 0.0000e+00
      53239 166.659112     -1.143    480.686    10.7876   3.938824     2.6870    477.000 4.7044e-02    10.7280    35.3364  1029.2321    27.0868    4.28033         23 0.0000e+00
      53263 166.659123     -1.105    479.676    10.7880   3.938811     2.6871    476.000 4.7759e-02    10.7286    35.3363  1029.2274    27.0866    4.28002         27 0.0000e+00
      53294 166.659138     -0.836    478.661    10.8009   3.940397     2.6896    475.000 4.6658e-02    10.7416    35.3402  1029.2235    27.0873    4.28343         33 0.0000e+00
      53328 166.659155     -0.705    477.661    10.8376   3.944263     2.6898    474.000 4.7272e-02    10.7783    35.3441  1029.2151    27.0838    4.27989         31 0.0000e+00
      53363 166.659172     -0.691    476.652    10.8468   3.945167     2.6907    473.000 4.7678e-02    10.7875    35.3447  1029.2094    27.0826    4.28054         32 0.0000e+00
      53399 166.659189     -0.690    475.642    10.8632   3.947069     2.6930    472.000 4.7585e-02    10.8040    35.3484  1029.2046    27.0825    4.28326         37 0.0000e+00
      53436 166.659207     -0.642    474.643    10.9123   3.952410     2.6951    471.000 4.7330e-02    10.8531    35.3551  1029.1960    27.0789    4.28255         34 0.0000e+00
      53475 166.659225     -0.609    473.634    10.9685   3.958717     2.6977    470.000 4.6442e-02    10.9092    35.3645  1029.1881    27.0761    4.28233         31 0.0000e+00
      53500 166.659238     -0.803    472.619    11.0191   3.964102     2.7001    469.000 4.6218e-02    10.9597    35.3702  1029.1783    27.0713    4.28222         21 0.0000e+00
      53522 166.659248     -1.057    471.604    11.0429   3.966392     2.7030    468.000 4.6912e-02    10.9836    35.3706  1029.1696    27.0672    4.28567         21 0.0000e+00
      53543 166.659258     -1.143    470.594    11.0466   3.966838     2.7055    467.000 4.7094e-02    10.9874    35.3719  1029.1654    27.0676    4.29007         21 0.0000e+00
      53567 166.659270     -1.095    469.586    11.0502   3.967157     2.7075    466.000 4.6970e-02    10.9912    35.3720  1029.1603    27.0670    4.29360         28 0.0000e+00
      53596 166.659284     -0.896    468.577    11.0610   3.968336     2.7093    465.000 4.6717e-02    11.0021    35.3739  1029.1552    27.0664    4.29576         32 0.0000e+00
      53630 166.659300     -0.713    467.563    11.0721   3.969528     2.7081    464.000 4.6896e-02    11.0133    35.3755  1029.1498    27.0657    4.29162         32 0.0000e+00
      53662 166.659316     -0.749    466.556    11.0859   3.970703     2.7072    463.000 4.7251e-02    11.0272    35.3744  1029.1418    27.0623    4.28786         33 0.0000e+00
      53694 166.659331     -0.751    465.547    11.0970   3.972243     2.7128    462.000 4.7283e-02    11.0383    35.3795  1029.1391    27.0642    4.29809         29 0.0000e+00
      53725 166.659346     -0.785    464.540    11.1189   3.974293     2.7103    461.000 4.7296e-02    11.0602    35.3795  1029.1304    27.0602    4.29023         34 0.0000e+00
      53968 166.659463     -0.348    463.530    11.1290   3.975422     2.7096    460.000 4.6086e-02    11.0705    35.3814  1029.1255    27.0598    4.28712         31 0.0000e+00
      54231 166.659590     -0.469    462.546    11.1263   3.975123     2.7151    459.000 4.6984e-02    11.0680    35.3814  1029.1216    27.0603    4.29866         39 0.0000e+00
      54236 166.659592     -0.707    461.508    11.1274   3.975301     2.7178    458.000 4.6221e-02    11.0691    35.3827  1029.1178    27.0610    4.30358         29 0.0000e+00
      54260 166.659604     -0.885    460.502    11.1519   3.978122     2.7197    457.000 4.7177e-02    11.0937    35.3876  1029.1124    27.0604    4.30482         20 0.0000e+00
      54282 166.659615     -1.062    459.499    11.1721   3.979972     2.7186    456.000 4.6540e-02    11.1139    35.3871  1029.1037    27.0563    4.30001         24 0.0000e+00
      54305 166.659626     -1.071    458.485    11.1852   3.981305     2.7169    455.000 4.6509e-02    11.1271    35.3883  1029.0975    27.0548    4.29454         22 0.0000e+00
      54326 166.659636     -1.095    457.475    11.1968   3.982446     2.7141    454.000 4.6896e-02    11.1388    35.3890  1029.0913    27.0532    4.28705         20 0.0000e+00
      54348 166.659647     -1.128    456.473    11.2019   3.982921     2.7090    453.000 4.6803e-02    11.1441    35.3892  1029.0860    27.0524    4.27509         24 0.0000e+00
      54373 166.659659     -1.018    455.462    11.2055   3.983240     2.7058    452.000 4.6887e-02    11.1478    35.3893  1029.0809    27.0518    4.26740         25 0.0000e+00
      54401 166.659672     -0.912    454.453    11.2139   3.984026     2.7049    451.000 4.6176e-02    11.1563    35.3895  1029.0750    27.0504    4.26410         30 0.0000e+00
      54433 166.659687     -0.784    453.444    11.2202   3.984690     2.7064    450.000 4.6652e-02    11.1627    35.3905  1029.0700    27.0500    4.26612         33 0.0000e+00
      54465 166.659703     -0.756    452.430    11.2257   3.985390     2.7124    449.000 4.6607e-02    11.1683    35.3927  1029.0661    27.0506    4.27785         29 0.0000e+00
      54492 166.659716     -0.815    451.425    11.2312   3.986052     2.7164    448.000 4.6790e-02    11.1739    35.3944  1029.0619    27.0510    4.28522         25 0.0000e+00
      54517 166.659728     -0.958    450.417    11.2366   3.986584     2.7162    447.000 4.6927e-02    11.1794    35.3950  1029.0568    27.0504    4.28366         23 0.0000e+00
      54540 166.659739     -1.018    449.409    11.2401   3.986908     2.7167    446.000 4.6770e-02    11.1830    35.3953  1029.0519    27.0500    4.28386         23 0.0000e+00
      54566 166.659751     -0.996    448.401    11.2521   3.988062     2.7149    445.000 4.6114e-02    11.1951    35.3957  1029.0454    27.0481    4.27832         29 0.0000e+00
      54598 166.659767     -0.802    447.392    11.2732   3.990265     2.7167    444.000 4.5973e-02    11.2163    35.3978  1029.0385    27.0458    4.27962         37 0.0000e+00
      54635 166.659785     -0.650    446.376    11.3180   3.994929     2.7254    443.000 4.6804e-02    11.2610    35.4016  1029.0283    27.0405    4.29352         32 0.0000e+00
      54663 166.659798     -0.785    445.370    11.3694   4.000745     2.7316    442.000 4.6354e-02    11.3124    35.4105  1029.0207    27.0379    4.30115         25 0.0000e+00
      54687 166.659810     -0.948    444.363    11.3814   4.002194     2.7355    441.000 4.6658e-02    11.3245    35.4138  1029.0164    27.0382    4.30766         23 0.0000e+00
      54709 166.659821     -1.048    443.354    11.3905   4.003256     2.7392    440.000 4.6675e-02    11.3337    35.4160  1029.0119    27.0382    4.31402         22 0.0000e+00
      54732 166.659832     -1.081    442.346    11.4015   4.004501     2.7418    439.000 4.6664e-02    11.3448    35.4183  1029.0070    27.0379    4.31801         23 0.0000e+00
      54754 166.659842     -1.062    441.338    11.4137   4.005815     2.7434    438.000 4.6405e-02    11.3571    35.4200  1029.0015    27.0370    4.31955         23 0.0000e+00
      54779 166.659854     -1.029    440.335    11.4215   4.006661     2.7449    437.000 4.6836e-02    11.3651    35.4213  1028.9965    27.0365    4.32156         27 0.0000e+00
      54812 166.659871     -0.791    439.322    11.4360   4.008166     2.7487    436.000 4.6665e-02    11.3796    35.4228  1028.9903    27.0350    4.32760         37 0.0000e+00
      54849 166.659888     -0.656    438.310    11.4725   4.012085     2.7534    435.000 4.5844e-02    11.4161    35.4271  1028.9821    27.0316    4.33355         33 0.0000e+00
      54880 166.659903     -0.750    437.300    11.5085   4.015979     2.7559    434.000 4.6323e-02    11.4521    35.4315  1028.9740    27.0283    4.33497         27 0.0000e+00
      54908 166.659916     -0.840    436.297    11.5862   4.024476     2.7576    433.000 4.6146e-02    11.5298    35.4415  1028.9621    27.0215    4.33062         29 0.0000e+00
      54936 166.659930     -0.866    435.284    11.6400   4.030373     2.7566    432.000 4.7406e-02    11.5835    35.4488  1028.9526    27.0170    4.32306         27 0.0000e+00
      54964 166.659944     -0.856    434.276    11.6894   4.035822     2.7572    431.000 4.6812e-02    11.6328    35.4557  1028.9438    27.0131    4.31906         26 0.0000e+00
      54989 166.659955     -0.929    433.264    11.7065   4.037775     2.7586    430.000 4.6597e-02    11.6501    35.4590  1028.9384    27.0124    4.31991         25 0.0000e+00
      55011 166.659966     -1.029    432.259    11.7216   4.039476     2.7603    429.000 4.7173e-02    11.6652    35.4617  1028.9331    27.0117    4.32148         20 0.0000e+00
      55033 166.659977     -1.106    431.256    11.7300   4.040384     2.7601    428.000 4.5558e-02    11.6737    35.4631  1028.9281    27.0112    4.31966         25 0.0000e+00
      55061 166.659990     -0.958    430.242    11.7355   4.041043     2.7629    427.000 4.5972e-02    11.6793    35.4648  1028.9238    27.0114    4.32437         29 0.0000e+00
      55089 166.660004     -0.834    429.233    11.7554   4.043230     2.7659    426.000 4.6932e-02    11.6993    35.4677  1028.9177    27.0099    4.32813         26 0.0000e+00
      55115 166.660017     -0.896    428.220    11.7656   4.044298     2.7672    425.000 4.6833e-02    11.7096    35.4689  1028.9121    27.0089    4.32929         25 0.0000e+00
      55138 166.660028     -0.983    427.217    11.7756   4.045397     2.7699    424.000 4.6768e-02    11.7197    35.4706  1028.9069    27.0083    4.33359         23 0.0000e+00
      55161 166.660039     -1.060    426.204    11.7789   4.045766     2.7703    423.000 4.6787e-02    11.7232    35.4715  1028.9024    27.0083    4.33348         22 0.0000e+00
      55182 166.660049     -1.103    425.202    11.7875   4.046671     2.7711    422.000 4.6345e-02    11.7318    35.4727  1028.8972    27.0076    4.33372         22 0.0000e+00
      55206 166.660060     -1.082    424.195    11.8022   4.048224     2.7736    421.000 4.6105e-02    11.7467    35.4743  1028.8911    27.0061    4.33696         25 0.0000e+00
      55236 166.660075     -0.878    423.185    11.8138   4.049469     2.7755    420.000 4.6771e-02    11.7584    35.4759  1028.8855    27.0051    4.33923         36 0.0000e+00
      55278 166.660095     -0.591    422.173    11.8215   4.050278     2.7762    419.000 4.6686e-02    11.7661    35.4770  1028.8803    27.0044    4.33945         42 0.0000e+00
      55315 166.660113     -0.623    421.158    11.8523   4.053662     2.7800    418.000 4.6253e-02    11.7970    35.4813  1028.8730    27.0019    4.34402         30 0.0000e+00
      55339 166.660124     -0.849    420.154    11.8773   4.056492     2.7835    417.000 4.7033e-02    11.8221    35.4856  1028.8669    27.0004    4.34840         21 0.0000e+00
      55359 166.660134     -1.079    419.147    11.8906   4.058000     2.7856    416.000 4.6723e-02    11.8355    35.4881  1028.8618    26.9999    4.35088         18 0.0000e+00
      55381 166.660145     -1.151    418.151    11.8980   4.058816     2.7867    415.000 4.7193e-02    11.8430    35.4895  1028.8570    26.9995    4.35192         26 0.0000e+00
      55419 166.660163     -0.724    417.133    11.9033   4.059357     2.7883    414.000 4.6834e-02    11.8484    35.4902  1028.8519    26.9991    4.35410         46 0.0000e+00
      55476 166.660191     -0.381    416.123    11.9195   4.061154     2.7868    413.000 4.6356e-02    11.8647    35.4928  1028.8462    26.9980    4.34891         50 0.0000e+00
      55513 166.660208     -0.617    415.113    11.9738   4.066191     2.7783    412.000 4.6583e-02    11.9190    35.4908  1028.8294    26.9860    4.32585         27 0.0000e+00
      55539 166.660221     -0.879    414.108    12.0587   4.075449     2.7858    411.000 4.6080e-02    12.0038    35.5009  1028.8158    26.9776    4.33295         27 0.0000e+00
      55568 166.660235     -0.864    413.092    12.0846   4.079654     2.7969    410.000 4.6573e-02    12.0297    35.5178  1028.8191    26.9857    4.35280         30 0.0000e+00
      55595 166.660248     -0.866    412.090    12.1314   4.085300     2.8053    409.000 4.6180e-02    12.0765    35.5288  1028.8138    26.9853    4.36508         27 0.0000e+00
      55623 166.660261     -0.874    411.077    12.1499   4.086971     2.8103    408.000 4.6610e-02    12.0951    35.5279  1028.8049    26.9810    4.37325         28 0.0000e+00
      55650 166.660274     -0.901    410.069    12.1615   4.088181     2.8130    407.000 4.6883e-02    12.1067    35.5292  1028.7991    26.9797    4.37719         25 0.0000e+00
      55675 166.660287     -0.933    409.065    12.1638   4.088416     2.8147    406.000 4.6962e-02    12.1092    35.5297  1028.7945    26.9796    4.38000         26 0.0000e+00
      55704 166.660301     -0.869    408.051    12.1642   4.088413     2.8159    405.000 4.7355e-02    12.1098    35.5297  1028.7899    26.9795    4.38179         28 0.0000e+00
      55732 166.660314     -0.855    407.046    12.1729   4.089385     2.8177    404.000 4.6030e-02    12.1186    35.5313  1028.7850    26.9790    4.38414         27 0.0000e+00
      55762 166.660328     -0.850    406.039    12.1921   4.091543     2.8184    403.000 4.6539e-02    12.1378    35.5345  1028.7792    26.9779    4.38312         33 0.0000e+00
      55799 166.660346     -0.668    405.028    12.1998   4.092326     2.8190    402.000 4.7248e-02    12.1456    35.5353  1028.7737    26.9769    4.38309         40 0.0000e+00
      55836 166.660364     -0.636    404.016    12.2233   4.094948     2.8193    401.000 4.6264e-02    12.1692    35.5389  1028.7673    26.9752    4.38098         34 0.0000e+00
      55866 166.660379     -0.773    403.009    12.2395   4.096679     2.8217    400.000 4.6488e-02    12.1855    35.5408  1028.7610    26.9735    4.38387         26 0.0000e+00
      55892 166.660391     -0.883    401.997    12.2502   4.097856     2.8237    399.000 4.6134e-02    12.1963    35.5425  1028.7556    26.9727    4.38632         24 0.0000e+00
      55915 166.660402     -0.993    400.990    12.2758   4.101295     2.8268    398.000 4.6008e-02    12.2220    35.5521  1028.7534    26.9751    4.38962         22 0.0000e+00
      55935 166.660412     -1.116    399.986    12.3658   4.111699     2.8314    397.000 4.7061e-02    12.3118    35.5681  1028.7431    26.9700    4.39001         20 0.0000e+00
      55958 166.660423     -1.138    398.983    12.4171   4.116752     2.8375    396.000 4.7275e-02    12.3632    35.5688  1028.7288    26.9606    4.39730         25 0.0000e+00
      55988 166.660437     -0.903    397.972    12.4422   4.119503     2.8441    395.000 4.6647e-02    12.3883    35.5721  1028.7217    26.9582    4.40800         37 0.0000e+00
      56029 166.660457     -0.563    396.957    12.4498   4.120387     2.8483    394.000 4.6612e-02    12.3960    35.5740  1028.7172    26.9581    4.41534         34 0.0000e+00
      56060 166.660472     -0.694    395.963    12.4708   4.122632     2.8505    393.000 4.6796e-02    12.4171    35.5762  1028.7102    26.9557    4.41728         25 0.0000e+00
      56083 166.660483     -0.935    394.938    12.4753   4.123058     2.8538    392.000 4.7177e-02    12.4218    35.5765  1028.7049    26.9550    4.42297         21 0.0000e+00
      56103 166.660493     -1.110    393.939    12.4763   4.123111     2.8550    391.000 4.6774e-02    12.4229    35.5764  1028.7002    26.9548    4.42482         19 0.0000e+00
      56124 166.660503     -1.188    392.931    12.4804   4.123559     2.8557    390.000 4.6335e-02    12.4271    35.5773  1028.6956    26.9546    4.42525         21 0.0000e+00
      56149 166.660515     -1.081    391.925    12.4831   4.123744     2.8556    389.000 4.7338e-02    12.4299    35.5771  1028.6904    26.9539    4.42426         28 0.0000e+00
      56182 166.660531     -0.790    390.910    12.4815   4.123546     2.8563    388.000 4.7130e-02    12.4285    35.5770  1028.6862    26.9541    4.42525         35 0.0000e+00
      56220 166.660549     -0.643    389.905    12.4831   4.123638     2.8568    387.000 4.6492e-02    12.4302    35.5769  1028.6813    26.9537    4.42545         35 0.0000e+00
      56254 166.660566     -0.690    388.890    12.4847   4.123795     2.8577    386.000 4.6926e-02    12.4320    35.5773  1028.6768    26.9536    4.42651         33 0.0000e+00
      56283 166.660580     -0.792    387.883    12.4919   4.124595     2.8593    385.000 4.6868e-02    12.4393    35.5786  1028.6719    26.9532    4.42867         26 0.0000e+00
      56309 166.660592     -0.887    386.874    12.4999   4.125492     2.8598    384.000 4.6589e-02    12.4474    35.5802  1028.6670    26.9528    4.42832         26 0.0000e+00
      56334 166.660604     -0.955    385.868    12.5103   4.126573     2.8612    383.000 4.7656e-02    12.4579    35.5812  1028.6612    26.9516    4.42953         24 0.0000e+00
      56358 166.660616     -0.978    384.856    12.5267   4.128553     2.8635    382.000 4.6398e-02    12.4743    35.5853  1028.6565    26.9515    4.43201         22 0.0000e+00
      56380 166.660627     -1.044    383.851    12.5495   4.131146     2.8649    381.000 4.6509e-02    12.4972    35.5892  1028.6504    26.9500    4.43227         22 0.0000e+00
      56403 166.660637     -1.103    382.847    12.5695   4.133401     2.8649    380.000 4.7370e-02    12.5173    35.5925  1028.6444    26.9486    4.42972         21 0.0000e+00
      56428 166.660649     -1.034    381.837    12.5830   4.134757     2.8646    379.000 4.6370e-02    12.5309    35.5932  1028.6377    26.9464    4.42731         27 0.0000e+00
      56461 166.660665     -0.795    380.828    12.6167   4.138537     2.8674    378.000 4.6523e-02    12.5647    35.5982  1028.6302    26.9436    4.42921         39 0.0000e+00
      56502 166.660686     -0.570    379.811    12.6643   4.143815     2.8726    377.000 4.6891e-02    12.6123    35.6046  1028.6208    26.9392    4.43473         35 0.0000e+00
      56538 166.660703     -0.622    378.833    12.6959   4.147544     2.8738    376.000 4.5843e-02    12.6440    35.6110  1028.6149    26.9378    4.43374         29 0.0000e+00
      56565 166.660716     -0.816    377.806    12.7584   4.154726     2.8754    375.000 4.6749e-02    12.7064    35.6215  1028.6057    26.9336    4.43040         23 0.0000e+00
      56586 166.660726     -1.042    376.786    12.7923   4.158165     2.8763    374.000 4.6854e-02    12.7404    35.6230  1028.5953    26.9280    4.42859         19 0.0000e+00
      56605 166.660735     -1.185    375.791    12.8229   4.161596     2.8769    373.000 4.6584e-02    12.7710    35.6275  1028.5881    26.9253    4.42637         19 0.0000e+00
      56627 166.660746     -1.192    374.784    12.8387   4.163140     2.8770    372.000 4.6551e-02    12.7870    35.6278  1028.5805    26.9223    4.42463         24 0.0000e+00
      56656 166.660760     -0.949    373.770    12.8463   4.163935     2.8760    371.000 4.7078e-02    12.7947    35.6287  1028.5752    26.9215    4.42119         34 0.0000e+00
      56703 166.660782     -0.490    372.760    12.8530   4.164700     2.8756    370.000 4.7532e-02    12.8015    35.6302  1028.5704    26.9213    4.41917         41 0.0000e+00
      56738 166.660799     -0.612    371.774    12.8909   4.168863     2.8756    369.000 4.5737e-02    12.8394    35.6348  1028.5618    26.9173    4.41502         24 0.0000e+00
      56761 166.660810     -0.890    370.766    12.9103   4.170986     2.8762    368.000 4.6680e-02    12.8589    35.6373  1028.5551    26.9152    4.41394         18 0.0000e+00
      56782 166.660820     -1.108    369.740    12.9254   4.172650     2.8769    367.000 4.6525e-02    12.8741    35.6395  1028.5492    26.9139    4.41339         18 0.0000e+00
      56801 166.660830     -1.222    368.734    12.9387   4.174029     2.8762    366.000 4.7106e-02    12.8876    35.6405  1028.5427    26.9120    4.41012         21 0.0000e+00
      56824 166.660841     -1.173    367.721    12.9491   4.175101     2.8756    365.000 4.7843e-02    12.8980    35.6414  1028.5368    26.9106    4.40724         24 0.0000e+00
      56856 166.660856     -0.838    366.717    12.9486   4.175029     2.8761    364.000 4.6767e-02    12.8976    35.6417  1028.5327    26.9109    4.40782         33 0.0000e+00
      56892 166.660874     -0.658    365.705    12.9570   4.175892     2.8785    363.000 4.6805e-02    12.9062    35.6424  1028.5270    26.9097    4.41115         30 0.0000e+00
      56925 166.660889     -0.718    364.700    12.9604   4.176230     2.8783    362.000 4.6315e-02    12.9097    35.6429  1028.5222    26.9094    4.41000         28 0.0000e+00
      56953 166.660903     -0.806    363.698    12.9712   4.177436     2.8772    361.000 4.6617e-02    12.9206    35.6447  1028.5169    26.9086    4.40606         24 0.0000e+00
      56980 166.660916     -0.902    362.692    12.9750   4.177744     2.8772    360.000 4.6988e-02    12.9246    35.6445  1028.5115    26.9076    4.40514         22 0.0000e+00
      57007 166.660929     -0.904    361.684    12.9777   4.178007     2.8791    359.000 4.6704e-02    12.9274    35.6448  1028.5067    26.9073    4.40824         27 0.0000e+00
      57036 166.660943     -0.858    360.656    12.9790   4.178094     2.8806    358.000 4.6634e-02    12.9289    35.6449  1028.5020    26.9071    4.41051         25 0.0000e+00
      57062 166.660955     -0.884    359.664    12.9795   4.178089     2.8800    357.000 4.7111e-02    12.9294    35.6449  1028.4974    26.9069    4.40860         25 0.0000e+00
      57085 166.660966     -0.983    358.644    12.9800   4.178127     2.8803    356.000 4.6633e-02    12.9301    35.6451  1028.4930    26.9070    4.40863         19 0.0000e+00
      57107 166.660977     -1.083    357.644    12.9819   4.178309     2.8793    355.000 4.7145e-02    12.9322    35.6455  1028.4885    26.9069    4.40570         22 0.0000e+00
      57130 166.660988     -1.076    356.638    12.9833   4.178393     2.8791    354.000 4.6026e-02    12.9336    35.6455  1028.4837    26.9066    4.40475         22 0.0000e+00
      57160 166.661002     -0.903    355.622    12.9869   4.178789     2.8799    353.000 4.6691e-02    12.9374    35.6463  1028.4791    26.9064    4.40524         34 0.0000e+00
      57188 166.661016     -0.731    354.629    12.9917   4.179350     2.8796    352.000 4.7003e-02    12.9423    35.6475  1028.4746    26.9064    4.40363          9 0.0000e+00
      57200 166.661022     -0.982    353.813    13.0004   4.180291     2.8792    351.000 4.7549e-02    12.9511    35.6487  1028.4701    26.9056    4.40154         10 0.0000e+00
      57217 166.661030     -1.380    352.666    13.0054   4.180796     2.8797    350.000 4.7369e-02    12.9563    35.6493  1028.4644    26.9049    4.40140         15 0.0000e+00
      57232 166.661037     -1.587    351.632    13.0118   4.181448     2.8801    349.000 4.6717e-02    12.9628    35.6500  1028.4591    26.9042    4.40105         11 0.0000e+00
      57250 166.661046     -1.599    350.592    13.0147   4.181708     2.8807    348.000 4.5896e-02    12.9658    35.6502  1028.4540    26.9037    4.40138         21 0.0000e+00
      57272 166.661057     -1.309    349.574    13.0214   4.182581     2.8811    347.000 4.6832e-02    12.9727    35.6526  1028.4499    26.9042    4.40101         24 0.0000e+00
      57301 166.661071     -0.933    348.561    13.0357   4.183991     2.8815    346.000 4.6578e-02    12.9871    35.6531  1028.4428    26.9017    4.39993         33 0.0000e+00
      57339 166.661089     -0.604    347.578    13.0587   4.186747     2.8833    345.000 4.6559e-02    13.0102    35.6582  1028.4377    26.9010    4.40083         30 0.0000e+00
      57380 166.661109     -0.582    346.585    13.0855   4.190349     2.8855    344.000 4.6664e-02    13.0371    35.6677  1028.4350    26.9029    4.40197         29 0.0000e+00
      57408 166.661122     -0.758    345.577    13.2451   4.208375     2.8912    343.000 4.6537e-02    13.1964    35.6899  1028.4142    26.8877    4.39824         26 0.0000e+00
      57435 166.661135     -0.911    344.531    13.2880   4.212850     2.8940    342.000 4.7933e-02    13.2393    35.6926  1028.4027    26.8810    4.39939         26 0.0000e+00
      57463 166.661149     -0.907    343.510    13.2928   4.213378     2.8943    341.000 4.7171e-02    13.2443    35.6935  1028.3978    26.8807    4.39895         25 0.0000e+00
      57488 166.661161     -0.915    342.512    13.3078   4.215062     2.8962    340.000 4.7139e-02    13.2593    35.6959  1028.3921    26.8795    4.40069         23 0.0000e+00
      57512 166.661172     -1.002    341.499    13.3132   4.215533     2.8980    339.000 4.6679e-02    13.2649    35.6958  1028.3863    26.8782    4.40331         24 0.0000e+00
      57535 166.661184     -1.007    340.500    13.3142   4.215620     2.8966    338.000 4.6500e-02    13.2660    35.6961  1028.3819    26.8782    4.39983         24 0.0000e+00
      57564 166.661197     -0.948    339.485    13.3231   4.216651     2.8967    337.000 4.6931e-02    13.2751    35.6979  1028.3770    26.8778    4.39859         29 0.0000e+00
      57600 166.661215     -0.661    338.489    13.3526   4.219985     2.8968    336.000 4.6241e-02    13.3047    35.7023  1028.3697    26.8751    4.39532         34 0.0000e+00
      57632 166.661230     -0.738    337.474    13.4036   4.225559     2.8964    335.000 4.5994e-02    13.3557    35.7078  1028.3587    26.8689    4.38934         31 0.0000e+00
      57666 166.661247     -0.746    336.460    13.4265   4.227888     2.8931    334.000 4.7172e-02    13.3786    35.7088  1028.3501    26.8650    4.38020         30 0.0000e+00
      57708 166.661267     -0.563    335.477    13.4334   4.228626     2.8940    333.000 4.6080e-02    13.3857    35.7097  1028.3450    26.8642    4.38064         35 0.0000e+00
      57743 166.661284     -0.630    334.484    13.4438   4.229698     2.8939    332.000 4.6204e-02    13.3962    35.7105  1028.3390    26.8627    4.37900         26 0.0000e+00
      57768 166.661296     -0.868    333.483    13.4444   4.229705     2.8939    331.000 4.6553e-02    13.3970    35.7105  1028.3344    26.8624    4.37841         20 0.0000e+00
      57794 166.661308     -0.965    332.443    13.4443   4.229641     2.8924    330.000 4.7016e-02    13.3970    35.7104  1028.3298    26.8624    4.37473         28 0.0000e+00
      57821 166.661321     -0.924    331.420    13.4484   4.230098     2.8910    329.000 4.7095e-02    13.4012    35.7114  1028.3251    26.8623    4.37095         28 0.0000e+00
      57851 166.661336     -0.839    330.413    13.4534   4.230561     2.8915    328.000 4.7029e-02    13.4063    35.7115  1028.3197    26.8613    4.37105         31 0.0000e+00
      57884 166.661352     -0.746    329.402    13.4574   4.230963     2.8933    327.000 4.6841e-02    13.4105    35.7119  1028.3147    26.8608    4.37364         33 0.0000e+00
      57917 166.661368     -0.728    328.399    13.4612   4.231343     2.8954    326.000 4.6769e-02    13.4145    35.7124  1028.3098    26.8603    4.37691         33 0.0000e+00
      57954 166.661385     -0.662    327.382    13.4643   4.231688     2.8963    325.000 4.6823e-02    13.4177    35.7132  1028.3053    26.8603    4.37775         29 0.0000e+00
      57984 166.661400     -0.756    326.388    13.4744   4.232742     2.8945    324.000 4.6969e-02    13.4279    35.7141  1028.2994    26.8589    4.37270         28 0.0000e+00
      58014 166.661414     -0.803    325.367    13.4760   4.232858     2.8931    323.000 4.7367e-02    13.4297    35.7142  1028.2946    26.8586    4.36920         26 0.0000e+00
      58040 166.661427     -0.903    324.368    13.4818   4.233531     2.8954    322.000 4.6504e-02    13.4356    35.7155  1028.2900    26.8584    4.37265         27 0.0000e+00
      58075 166.661444     -0.740    323.360    13.4927   4.234715     2.8979    321.000 4.6576e-02    13.4466    35.7169  1028.2843    26.8572    4.37605         41 0.0000e+00
      58115 166.661463     -0.591    322.339    13.5236   4.238148     2.8977    320.000 4.6727e-02    13.4776    35.7209  1028.2763    26.8539    4.37212         34 0.0000e+00
      58143 166.661476     -0.772    321.340    13.5503   4.241148     2.8970    319.000 4.6553e-02    13.5043    35.7247  1028.2691    26.8513    4.36779         25 0.0000e+00
      58165 166.661487     -0.977    320.331    13.5828   4.244919     2.8969    318.000 4.6868e-02    13.5369    35.7303  1028.2621    26.8489    4.36409         18 0.0000e+00
      58187 166.661498     -1.111    319.321    13.6051   4.247192     2.8970    317.000 4.7314e-02    13.5593    35.7313  1028.2536    26.8450    4.36161         22 0.0000e+00
      58210 166.661509     -1.090    318.320    13.6162   4.248253     2.8978    316.000 4.6447e-02    13.5706    35.7314  1028.2469    26.8427    4.36173         25 0.0000e+00
      58238 166.661522     -0.948    317.307    13.6261   4.249346     2.8973    315.000 4.7772e-02    13.5806    35.7329  1028.2414    26.8418    4.35916         29 0.0000e+00
      58269 166.661537     -0.789    316.301    13.6396   4.250792     2.8988    314.000 4.6711e-02    13.5942    35.7343  1028.2352    26.8401    4.36039         31 0.0000e+00
      58301 166.661553     -0.751    315.293    13.6540   4.252360     2.8982    313.000 4.6476e-02    13.6088    35.7360  1028.2290    26.8383    4.35725         32 0.0000e+00
      58332 166.661568     -0.773    314.281    13.6676   4.253853     2.8984    312.000 4.7128e-02    13.6224    35.7379  1028.2230    26.8370    4.35591         28 0.0000e+00
      58359 166.661581     -0.848    313.273    13.6833   4.255550     2.8987    311.000 4.6068e-02    13.6382    35.7396  1028.2166    26.8350    4.35455         23 0.0000e+00
      58383 166.661592     -0.956    312.266    13.7003   4.257382     2.8971    310.000 4.7241e-02    13.6554    35.7414  1028.2098    26.8328    4.34915         24 0.0000e+00
      58407 166.661604     -1.019    311.260    13.7088   4.258245     2.8985    309.000 4.6732e-02    13.6639    35.7420  1028.2040    26.8315    4.35069         26 0.0000e+00
      58436 166.661618     -0.904    310.251    13.7109   4.258452     2.8972    308.000 4.7428e-02    13.6662    35.7424  1028.1994    26.8313    4.34735         31 0.0000e+00
      58474 166.661636     -0.664    309.246    13.7184   4.259251     2.8995    307.000 4.6881e-02    13.6739    35.7433  1028.1941    26.8304    4.35060         37 0.0000e+00
      58514 166.661655     -0.580    308.269    13.7219   4.259616     2.9020    306.000 4.7077e-02    13.6775    35.7439  1028.1894    26.8301    4.35455         31 0.0000e+00
      58543 166.661670     -0.664    307.402    13.7260   4.260010     2.9006    305.000 4.7099e-02    13.6817    35.7442  1028.1849    26.8294    4.35107         14 0.0000e+00
      58569 166.661682     -0.889    306.310    13.7301   4.260481     2.9031    304.000 4.6876e-02    13.6860    35.7452  1028.1800    26.8293    4.35481         17 0.0000e+00
      58593 166.661694     -1.065    305.236    13.7344   4.260844     2.9014    303.000 4.6416e-02    13.6904    35.7451  1028.1743    26.8284    4.35058         23 0.0000e+00
      58618 166.661706     -1.034    304.223    13.7379   4.261175     2.9015    302.000 4.6231e-02    13.6941    35.7453  1028.1692    26.8278    4.34987         23 0.0000e+00
      58653 166.661723     -0.747    303.219    13.7425   4.261666     2.9050    301.000 4.6819e-02    13.6988    35.7461  1028.1644    26.8274    4.35565         36 0.0000e+00
      58696 166.661743     -0.547    302.212    13.7624   4.263785     2.9078    300.000 4.7198e-02    13.7187    35.7479  1028.1571    26.8246    4.35895         32 0.0000e+00
      58737 166.661763     -0.567    301.245    13.7915   4.266967     2.9059    299.000 4.7203e-02    13.7479    35.7511  1028.1490    26.8209    4.35205         32 0.0000e+00
      58771 166.661780     -0.672    300.231    13.8143   4.269411     2.9063    298.000 4.6732e-02    13.7708    35.7532  1028.1412    26.8178    4.35026         25 0.0000e+00
      58802 166.661795     -0.762    299.230    13.8465   4.273061     2.9094    297.000 4.6911e-02    13.8031    35.7579  1028.1334    26.8146    4.35278         26 0.0000e+00
      58832 166.661809     -0.818    298.209    13.8893   4.277810     2.9106    296.000 4.7314e-02    13.8460    35.7629  1028.1236    26.8095    4.35076         25 0.0000e+00
      58862 166.661823     -0.864    297.137    13.9270   4.281913     2.9123    295.000 4.6711e-02    13.8838    35.7667  1028.1136    26.8044    4.35007         18 0.0000e+00
      58889 166.661836     -0.836    296.219    13.9512   4.284733     2.9153    294.000 4.5947e-02    13.9080    35.7709  1028.1076    26.8026    4.35333         23 0.0000e+00
      58917 166.661850     -0.826    295.230    13.9761   4.287518     2.9149    293.000 4.6493e-02    13.9330    35.7743  1028.1004    26.7999    4.34963         22 0.0000e+00
      58947 166.661864     -0.835    294.192    13.9828   4.288229     2.9163    292.000 4.6838e-02    13.9398    35.7751  1028.0950    26.7991    4.35130         27 0.0000e+00
      58978 166.661880     -0.831    293.127    13.9882   4.288755     2.9150    291.000 4.5908e-02    13.9454    35.7754  1028.0894    26.7982    4.34763         29 0.0000e+00
      59013 166.661896     -0.721    292.111    13.9941   4.289415     2.9167    290.000 4.6464e-02    13.9514    35.7766  1028.0845    26.7978    4.34978         36 0.0000e+00
      59049 166.661913     -0.666    291.092    14.0026   4.290351     2.9190    289.000 4.7395e-02    13.9601    35.7778  1028.0791    26.7969    4.35294         29 0.0000e+00
      59077 166.661927     -0.797    290.093    14.0131   4.291500     2.9194    288.000 4.6169e-02    13.9707    35.7792  1028.0735    26.7958    4.35217         27 0.0000e+00
      59103 166.661940     -0.901    289.085    14.0213   4.292499     2.9202    287.000 4.6812e-02    13.9790    35.7814  1028.0689    26.7957    4.35236         24 0.0000e+00
      59130 166.661953     -0.943    288.068    14.0299   4.293404     2.9212    286.000 4.7418e-02    13.9877    35.7822  1028.0633    26.7945    4.35306         22 0.0000e+00
      59157 166.661966     -0.871    287.103    14.0663   4.297681     2.9196    285.000 4.6609e-02    14.0242    35.7887  1028.0561    26.7918    4.34600         26 0.0000e+00
      59190 166.661981     -0.784    286.075    14.0899   4.300109     2.9183    284.000 4.6577e-02    14.0480    35.7898  1028.0473    26.7876    4.34082         34 0.0000e+00
      59230 166.662001     -0.628    285.049    14.1069   4.301872     2.9197    283.000 4.7651e-02    14.0650    35.7910  1028.0399    26.7849    4.34158         40 0.0000e+00
      59266 166.662018     -0.621    284.044    14.1521   4.307360     2.9241    282.000 4.7577e-02    14.1103    35.8005  1028.0330    26.7826    4.34537         30 0.0000e+00
      59291 166.662030     -0.844    283.034    14.1946   4.312477     2.9263    281.000 4.6357e-02    14.1529    35.8091  1028.0259    26.7802    4.34526         20 0.0000e+00
      59310 166.662040     -1.078    282.020    14.2434   4.318454     2.9279    280.000 4.5959e-02    14.2018    35.8199  1028.0190    26.7780    4.34340         17 0.0000e+00
      59327 166.662048     -1.290    281.018    14.2779   4.322184     2.9285    279.000 4.6705e-02    14.2363    35.8230  1028.0095    26.7731    4.34089         17 0.0000e+00
      59347 166.662057     -1.344    280.015    14.3059   4.325780     2.9306    278.000 4.6344e-02    14.2644    35.8309  1028.0050    26.7731    4.34181         23 0.0000e+00
      59370 166.662068     -1.171    279.002    14.3863   4.334886     2.9337    277.000 4.7731e-02    14.3448    35.8412  1027.9908    26.7638    4.34007         22 0.0000e+00
      59393 166.662080     -1.046    277.994    14.4112   4.337526     2.9354    276.000 4.7224e-02    14.3699    35.8430  1027.9822    26.7598    4.34060         23 0.0000e+00
      59418 166.662091     -1.011    276.989    14.4298   4.339177     2.9357    275.000 4.6977e-02    14.3886    35.8415  1027.9725    26.7546    4.33909         25 0.0000e+00
      59446 166.662105     -0.904    275.990    14.4333   4.339449     2.9333    274.000 4.7029e-02    14.3921    35.8413  1027.9672    26.7537    4.33351         29 0.0000e+00
      59483 166.662123     -0.689    274.965    14.4455   4.340829     2.9305    273.000 4.7243e-02    14.4045    35.8431  1027.9614    26.7524    4.32639         34 0.0000e+00
      59512 166.662137     -0.705    273.984    14.5014   4.347342     2.9332    272.000 4.7333e-02    14.4605    35.8520  1027.9516    26.7472    4.32605         21 0.0000e+00
      59536 166.662149     -0.957    272.959    14.5276   4.350091     2.9350    271.000 4.7079e-02    14.4867    35.8537  1027.9425    26.7428    4.32683         25 0.0000e+00
      59561 166.662161     -0.993    271.950    14.5526   4.353002     2.9371    270.000 4.7379e-02    14.5118    35.8579  1027.9358    26.7406    4.32804         25 0.0000e+00
      59593 166.662176     -0.820    270.948    14.5864   4.356823     2.9370    269.000 4.6640e-02    14.5458    35.8623  1027.9273    26.7367    4.32428         36 0.0000e+00
      59634 166.662196     -0.586    269.928    14.6184   4.360387     2.9348    268.000 4.7650e-02    14.5779    35.8661  1027.9185    26.7326    4.31660         31 0.0000e+00
      59665 166.662211     -0.604    269.126    14.6583   4.363875     2.8762    267.000 4.7745e-02    14.6178    35.8617  1027.9028    26.7206    4.19968         22 0.0000e+00
      59706 166.662230     -0.649    268.016    14.6679   4.360535     2.7348    266.000 4.7615e-02    14.6275    35.8226  1027.8656    26.6882    3.92632         32 0.0000e+00
      59740 166.662247     -0.709    266.931    14.6883   4.360289     2.6324    265.000 4.6871e-02    14.6481    35.8019  1027.8404    26.6678    3.72696         17 0.0000e+00
      59763 166.662258     -0.888    266.060    14.6965   4.358693     2.5832    264.000 4.6267e-02    14.6564    35.7801  1027.8179    26.6491    3.63145         13 0.0000e+00
      59791 166.662271     -0.937    264.976    14.6964   4.358536     2.5455    263.000 4.6456e-02    14.6565    35.7792  1027.8124    26.6484    3.55827         22 0.0000e+00
      59819 166.662285     -0.853    264.020    14.7170   4.360113     2.5226    262.000 4.7726e-02    14.6772    35.7751  1027.8005    26.6408    3.51226         20 0.0000e+00
      59850 166.662300     -0.784    263.036    14.7372   4.362902     2.5392    261.000 4.6741e-02    14.6975    35.7827  1027.7975    26.6421    3.54223         23 0.0000e+00
      59882 166.662315     -0.766    261.989    14.7436   4.364293     2.5432    260.000 4.7131e-02    14.7041    35.7900  1027.7970    26.6463    3.54884         20 0.0000e+00
      59914 166.662331     -0.809    260.922    14.7443   4.359188     2.5125    259.000 4.6938e-02    14.7049    35.7428  1027.7559    26.6098    3.49005         22 0.0000e+00
      59941 166.662344     -0.803    259.996    14.7681   4.359404     2.4813    258.000 4.7276e-02    14.7288    35.7234  1027.7315    26.5895    3.42835         17 0.0000e+00
      59971 166.662358     -0.859    258.925    14.8030   4.358294     2.4343    257.000 4.6123e-02    14.7639    35.6816  1027.6868    26.5496    3.33586         21 0.0000e+00
      60000 166.662372     -0.763    258.102    14.7732   4.357337     2.4193    256.000 4.6598e-02    14.7343    35.7005  1027.7043    26.5706    3.30825         19 0.0000e+00
      60037 166.662390     -0.720    256.955    14.8475   4.365073     2.4405    255.000 4.7072e-02    14.8085    35.7039  1027.6853    26.5570    3.34367         20 0.0000e+00
      60068 166.662405     -0.793    255.928    14.8565   4.370409     2.4825    254.000 4.6293e-02    14.8177    35.7449  1027.7104    26.5867    3.42236         20 0.0000e+00
      60098 166.662419     -0.824    254.859    14.8862   4.371704     2.4810    253.000 4.6272e-02    14.8475    35.7300  1027.6876    26.5687    3.41732         23 0.0000e+00
      60121 166.662431     -0.936    253.902    14.8929   4.364944     2.4508    252.000 4.6689e-02    14.8543    35.6624  1027.6298    26.5149    3.35992         19 0.0000e+00
      60147 166.662443     -1.000    252.816    14.9147   4.365530     2.4185    251.000 4.7327e-02    14.8763    35.6483  1027.6092    26.4992    3.29622         23 0.0000e+00
      60173 166.662456     -0.983    251.798    14.9440   4.366251     2.3995    250.000 4.6139e-02    14.9057    35.6285  1027.5829    26.4775    3.25798         19 0.0000e+00
      60200 166.662469     -0.869    250.864    14.9801   4.373509     2.4028    249.000 4.6798e-02    14.9418    35.6623  1027.5967    26.4956    3.26083         27 0.0000e+00
      60236 166.662486     -0.735    249.784    15.0024   4.384974     2.4564    248.000 4.6063e-02    14.9642    35.7471  1027.6522    26.5561    3.35994         29 0.0000e+00
      60271 166.662503     -0.705    248.776    15.0191   4.376685     2.4952    247.000 4.7127e-02    14.9812    35.6565  1027.5743    26.4825    3.43446         37 0.0000e+00
      60313 166.662523     -0.568    247.760    15.0436   4.379135     2.4757    246.000 4.5965e-02    15.0057    35.6570  1027.5647    26.4774    3.39504         33 0.0000e+00
      60341 166.662537     -0.741    246.772    15.0781   4.379664     2.4331    245.000 4.6399e-02    15.0403    35.6308  1027.5324    26.4496    3.31143         26 0.0000e+00
      60366 166.662549     -0.924    245.765    15.1090   4.384454     2.4104    244.000 4.6819e-02    15.0713    35.6467  1027.5332    26.4550    3.26537         20 0.0000e+00
      60391 166.662561     -0.998    244.741    15.1375   4.390764     2.4125    243.000 4.6353e-02    15.1000    35.6786  1027.5468    26.4732    3.26646         27 0.0000e+00
      60420 166.662575     -0.896    243.733    15.1611   4.388782     2.4215    242.000 4.6093e-02    15.1236    35.6396  1027.5070    26.4379    3.28253         29 0.0000e+00
      60464 166.662596     -0.492    242.766    15.1784   4.389007     2.4392    241.000 4.7004e-02    15.1411    35.6262  1027.4885    26.4236    3.31495         33 0.0000e+00
      60497 166.662612     -0.700    241.726    15.2520   4.403717     2.4723    240.000 4.6254e-02    15.2147    35.6934  1027.5190    26.4591    3.37148         28 0.0000e+00
      60523 166.662624     -0.888    240.699    15.2743   4.407385     2.4859    239.000 4.7130e-02    15.2371    35.7069  1027.5197    26.4645    3.39522         19 0.0000e+00
      60547 166.662636     -1.015    239.718    15.3277   4.400086     2.4614    238.000 4.6807e-02    15.2906    35.5925  1027.4153    26.3644    3.34704         16 0.0000e+00
      60579 166.662651     -0.793    238.798    15.2942   4.393315     2.4119    237.000 4.6805e-02    15.2574    35.5618  1027.3952    26.3482    3.25513         39 0.0000e+00
      60636 166.662679     -0.422    237.676    15.4106   4.397683     2.4006    236.000 4.8001e-02    15.3737    35.4966  1027.3136    26.2719    3.22722         45 0.0000e+00
      60667 166.662694     -0.675    236.662    15.5005   4.429205     2.5837    235.000 4.7431e-02    15.4636    35.7006  1027.4455    26.4089    3.56380         22 0.0000e+00
      60688 166.662704     -0.956    235.702    15.5411   4.465007     2.7410    234.000 4.9073e-02    15.5042    35.9875  1027.6526    26.6208    3.85149         19 0.0000e+00
      60710 166.662715     -1.098    234.658    15.5625   4.468504     2.8319    233.000 4.8785e-02    15.5257    36.0000  1027.6527    26.6255    4.02078         22 0.0000e+00
      60731 166.662725     -1.154    233.647    15.6006   4.473060     2.8824    232.000 4.8103e-02    15.5639    36.0067  1027.6446    26.6221    4.11225         16 0.0000e+00
      60751 166.662734     -1.181    232.668    15.6145   4.474930     2.9079    231.000 4.7871e-02    15.5779    36.0114  1027.6407    26.6225    4.15872         19 0.0000e+00
      60775 166.662746     -1.117    231.650    15.6338   4.477304     2.9255    230.000 4.9574e-02    15.5973    36.0156  1027.6350    26.6213    4.18949         26 0.0000e+00
      60810 166.662763     -0.781    230.632    15.6618   4.480569     2.9348    229.000 4.9875e-02    15.6255    36.0198  1027.6273    26.6182    4.20423         36 0.0000e+00
      60875 166.662794     -0.307    229.624    15.6883   4.483808     2.9462    228.000 4.9683e-02    15.6522    36.0252  1027.6209    26.6163    4.22275         44 0.0000e+00
      60907 166.662810     -0.648    228.611    15.7056   4.485848     2.9498    227.000 4.9840e-02    15.6696    36.0282  1027.6147    26.6146    4.22748         27 0.0000e+00
      60931 166.662821     -0.933    227.604    15.7271   4.488210     2.9501    226.000 4.8773e-02    15.6912    36.0303  1027.6069    26.6113    4.22574         16 0.0000e+00
      60953 166.662832     -1.043    226.650    15.7335   4.488878     2.9531    225.000 4.9178e-02    15.6977    36.0308  1027.6017    26.6102    4.23022         23 0.0000e+00
      60979 166.662844     -0.988    225.629    15.7548   4.491378     2.9536    224.000 4.8988e-02    15.7191    36.0343  1027.5949    26.6081    4.22873         26 0.0000e+00
      61013 166.662861     -0.778    224.587    15.7752   4.493747     2.9588    223.000 4.7835e-02    15.7397    36.0375  1027.5880    26.6058    4.23625         33 0.0000e+00
      61050 166.662879     -0.643    223.603    15.8031   4.497202     2.9676    222.000 4.9536e-02    15.7677    36.0435  1027.5819    26.6040    4.24978         33 0.0000e+00
      61083 166.662895     -0.702    222.576    15.8458   4.502421     2.9718    221.000 4.8414e-02    15.8105    36.0519  1027.5739    26.6007    4.25343         22 0.0000e+00
      61110 166.662907     -0.812    221.692    15.8605   4.503932     2.9714    220.000 4.8630e-02    15.8253    36.0524  1027.5669    26.5977    4.25082         16 0.0000e+00
      61141 166.662922     -0.829    220.611    15.8909   4.507661     2.9736    219.000 4.9548e-02    15.8558    36.0586  1027.5599    26.5955    4.25181         27 0.0000e+00
      61178 166.662940     -0.711    219.577    15.9240   4.511835     2.9768    218.000 5.0026e-02    15.8891    36.0663  1027.5535    26.5937    4.25430         38 0.0000e+00
      61217 166.662959     -0.609    218.547    15.9752   4.517939     2.9813    217.000 5.0216e-02    15.9403    36.0748  1027.5436    26.5886    4.25771         33 0.0000e+00
      61253 166.662977     -0.670    217.534    16.0342   4.525298     2.9828    216.000 5.0173e-02    15.9994    36.0874  1027.5350    26.5846    4.25478         32 0.0000e+00
      61286 166.662992     -0.725    216.547    16.0926   4.531929     2.9821    215.000 5.1183e-02    16.0579    36.0940  1027.5220    26.5762    4.24804         29 0.0000e+00
      61324 166.663011     -0.629    215.567    16.1239   4.535767     2.9853    214.000 5.0202e-02    16.0893    36.1002  1027.5151    26.5737    4.25083         25 0.0000e+00
      61362 166.663029     -0.616    214.610    16.1452   4.538309     2.9858    213.000 5.0395e-02    16.1107    36.1040  1027.5088    26.5716    4.24946         33 0.0000e+00
      61411 166.663053     -0.529    213.522    16.1695   4.541212     2.9847    212.000 5.1723e-02    16.1352    36.1082  1027.5016    26.5692    4.24456         38 0.0000e+00
      61456 166.663074     -0.508    212.538    16.1859   4.543187     2.9866    211.000 5.0276e-02    16.1517    36.1113  1027.4958    26.5678    4.24615         24 0.0000e+00
      61489 166.663090     -0.700    211.550    16.1973   4.544461     2.9844    210.000 5.2393e-02    16.1632    36.1127  1027.4898    26.5662    4.24052         24 0.0000e+00
      61521 166.663106     -0.645    210.726    16.2051   4.545396     2.9859    209.000 5.2245e-02    16.1712    36.1143  1027.4855    26.5655    4.24217         18 0.0000e+00
      61576 166.663132     -0.529    209.530    16.2209   4.547248     2.9884    208.000 5.2766e-02    16.1871    36.1170  1027.4786    26.5639    4.24490         48 0.0000e+00
      61619 166.663153     -0.554    208.505    16.2417   4.549783     2.9878    207.000 5.2482e-02    16.2081    36.1210  1027.4723    26.5621    4.24129         22 0.0000e+00
      61648 166.663167     -0.766    207.502    16.2608   4.552165     2.9879    206.000 5.1484e-02    16.2273    36.1253  1027.4667    26.5610    4.23937         24 0.0000e+00
      61676 166.663180     -0.854    206.543    16.2988   4.556759     2.9894    205.000 5.1946e-02    16.2654    36.1321  1027.4588    26.5573    4.23838         20 0.0000e+00
      61707 166.663195     -0.803    205.515    16.3191   4.559114     2.9903    204.000 5.2235e-02    16.2859    36.1350  1027.4517    26.5548    4.23774         33 0.0000e+00
      61740 166.663211     -0.763    204.418    16.3500   4.563068     2.9931    203.000 5.3842e-02    16.3168    36.1426  1027.4454    26.5534    4.23956         20 0.0000e+00
      61764 166.663223     -0.882    203.474    16.3686   4.565101     2.9944    202.000 5.2999e-02    16.3356    36.1442  1027.4380    26.5502    4.23989         21 0.0000e+00
      61790 166.663235     -0.955    202.427    16.3847   4.567204     2.9933    201.000 5.3257e-02    16.3519    36.1487  1027.4330    26.5498    4.23587         23 0.0000e+00
      61814 166.663247     -0.993    201.416    16.4110   4.570321     2.9938    200.000 5.2271e-02    16.3782    36.1530  1027.4257    26.5470    4.23406         23 0.0000e+00
      61843 166.663261     -0.904    200.407    16.4276   4.572444     2.9962    199.000 5.2666e-02    16.3950    36.1572  1027.4205    26.5463    4.23656         31 0.0000e+00
      61876 166.663277     -0.745    199.386    16.5043   4.582513     2.9986    198.000 5.1976e-02    16.4718    36.1773  1027.4132    26.5437    4.23373         23 0.0000e+00
      61906 166.663291     -0.749    198.436    16.6162   4.595729     3.0003    197.000 5.2775e-02    16.5837    36.1934  1027.3947    26.5297    4.22702         26 0.0000e+00
      61940 166.663308     -0.742    197.418    16.6687   4.601925     3.0040    196.000 5.2790e-02    16.6363    36.2010  1027.3835    26.5231    4.22875         30 0.0000e+00
      61980 166.663327     -0.571    196.438    16.7268   4.609286     3.0055    195.000 5.3288e-02    16.6945    36.2138  1027.3751    26.5192    4.22611         26 0.0000e+00
      62008 166.663340     -0.711    195.486    16.7759   4.614871     3.0066    194.000 5.1518e-02    16.7436    36.2191  1027.3632    26.5116    4.22354         17 0.0000e+00
      62029 166.663351     -1.010    194.390    16.7898   4.616966     3.0120    193.000 5.2391e-02    16.7577    36.2255  1027.3599    26.5132    4.23157         16 0.0000e+00
      62046 166.663359     -1.243    193.429    16.8817   4.628515     3.0155    192.000 5.1434e-02    16.8497    36.2444  1027.3480    26.5058    4.22966         10 0.0000e+00
      62061 166.663366     -1.402    192.499    16.9264   4.633548     3.0174    191.000 5.2269e-02    16.8945    36.2487  1027.3364    26.4984    4.22891         12 0.0000e+00
      62079 166.663375     -1.459    191.402    16.9676   4.638560     3.0186    190.000 5.3075e-02    16.9357    36.2560  1027.3273    26.4942    4.22696         17 0.0000e+00
      62102 166.663386     -1.291    190.345    17.0024   4.642634     3.0198    189.000 5.4383e-02    16.9707    36.2608  1027.3179    26.4895    4.22568         21 0.0000e+00
      62136 166.663402     -0.817    189.320    17.0358   4.646742     3.0221    188.000 5.2751e-02    17.0042    36.2671  1027.3101    26.4863    4.22656         31 0.0000e+00
      62201 166.663434     -0.322    188.343    17.1426   4.660216     3.0283    187.000 5.4274e-02    17.1110    36.2893  1027.2968    26.4776    4.22819         36 0.0000e+00
      62232 166.663449     -0.672    187.338    17.2858   4.677933     3.0325    186.000 5.5918e-02    17.2542    36.3155  1027.2776    26.4632    4.22345         18 0.0000e+00
      62253 166.663459     -1.004    186.328    17.3505   4.685082     3.0328    185.000 5.6988e-02    17.3190    36.3201  1027.2607    26.4510    4.21819         18 0.0000e+00
      62271 166.663468     -1.169    185.371    17.3793   4.689173     3.0343    184.000 5.7670e-02    17.3480    36.3302  1027.2572    26.4517    4.21781         18 0.0000e+00
      62295 166.663479     -1.189    184.289    17.4084   4.692517     3.0348    183.000 6.0104e-02    17.3772    36.3335  1027.2479    26.4471    4.21569         23 0.0000e+00
      62323 166.663493     -0.952    183.280    17.4122   4.692973     3.0378    182.000 5.9200e-02    17.3812    36.3345  1027.2433    26.4469    4.22020         28 0.0000e+00
      62364 166.663512     -0.558    182.337    17.4736   4.701138     3.0439    181.000 5.9133e-02    17.4426    36.3507  1027.2365    26.4444    4.22555         32 0.0000e+00
      62400 166.663530     -0.662    181.299    17.5803   4.713864     3.0487    180.000 5.9714e-02    17.5494    36.3658  1027.2171    26.4299    4.22489         20 0.0000e+00
      62430 166.663544     -0.776    180.307    17.5960   4.715511     3.0511    179.000 5.8769e-02    17.5652    36.3665  1027.2094    26.4265    4.22737         33 0.0000e+00
      62469 166.663563     -0.621    179.284    17.6057   4.716883     3.0520    178.000 5.7808e-02    17.5751    36.3700  1027.2052    26.4268    4.22766         24 0.0000e+00
      62497 166.663576     -0.723    178.385    17.6511   4.722638     3.0551    177.000 5.7651e-02    17.6206    36.3795  1027.1973    26.4229    4.22878         22 0.0000e+00
      62529 166.663592     -0.836    177.264    17.7167   4.731119     3.0599    176.000 5.6221e-02    17.6863    36.3945  1027.1876    26.4183    4.23134         26 0.0000e+00
      62557 166.663605     -0.858    176.251    17.7832   4.739202     3.0649    175.000 5.4216e-02    17.7529    36.4053  1027.1748    26.4101    4.23430         22 0.0000e+00
      62586 166.663619     -0.841    175.263    17.8483   4.747303     3.0682    174.000 5.3974e-02    17.8181    36.4173  1027.1634    26.4032    4.23414         22 0.0000e+00
      62616 166.663634     -0.815    174.246    17.9460   4.759244     3.0708    173.000 5.3298e-02    17.9159    36.4332  1027.1467    26.3912    4.23033         30 0.0000e+00
      62646 166.663648     -0.814    173.232    18.0075   4.766783     3.0747    172.000 5.1295e-02    17.9775    36.4435  1027.1347    26.3838    4.23166         24 0.0000e+00
      62675 166.663662     -0.805    172.251    18.0549   4.772651     3.0762    171.000 5.0963e-02    18.0250    36.4519  1027.1249    26.3784    4.22990         25 0.0000e+00
      62705 166.663677     -0.842    171.204    18.1006   4.778060     3.0784    170.000 5.1303e-02    18.0708    36.4580  1027.1135    26.3716    4.22943         27 0.0000e+00
      62738 166.663692     -0.743    170.243    18.1082   4.778950     3.0791    169.000 5.0906e-02    18.0786    36.4591  1027.1083    26.3706    4.22958         21 0.0000e+00
      62785 166.663715     -0.529    169.245    18.1174   4.780058     3.0806    168.000 5.1511e-02    18.0880    36.4608  1027.1029    26.3696    4.23094         50 0.0000e+00
      62833 166.663738     -0.537    168.157    18.1313   4.781659     3.0834    167.000 5.1963e-02    18.1020    36.4626  1027.0960    26.3674    4.23411         33 0.0000e+00
      62862 166.663752     -0.699    167.225    18.1356   4.782169     3.0803    166.000 5.1398e-02    18.1064    36.4635  1027.0915    26.3670    4.22782         22 0.0000e+00
      62890 166.663766     -0.866    166.160    18.1460   4.783437     3.0809    165.000 5.1279e-02    18.1171    36.4655  1027.0858    26.3658    4.22734         25 0.0000e+00
      62918 166.663780     -0.900    165.148    18.1541   4.784418     3.0812    164.000 5.1630e-02    18.1254    36.4670  1027.0805    26.3650    4.22670         28 0.0000e+00
      62953 166.663796     -0.745    164.138    18.1605   4.785180     3.0865    163.000 5.1998e-02    18.1319    36.4683  1027.0754    26.3643    4.23501         36 0.0000e+00
      62995 166.663817     -0.550    163.147    18.1813   4.788054     3.0931    162.000 5.3238e-02    18.1529    36.4747  1027.0707    26.3639    4.24425         34 0.0000e+00
      63033 166.663835     -0.610    162.158    18.2464   4.796199     3.0923    161.000 5.1892e-02    18.2180    36.4868  1027.0592    26.3569    4.23692         26 0.0000e+00
      63070 166.663853     -0.644    161.168    18.2656   4.798464     3.0964    160.000 5.2268e-02    18.2374    36.4895  1027.0521    26.3541    4.24204         33 0.0000e+00
      63103 166.663869     -0.705    160.153    18.2938   4.802182     3.1004    159.000 5.1448e-02    18.2657    36.4965  1027.0459    26.3524    4.24635         28 0.0000e+00
      63132 166.663883     -0.833    159.108    18.3282   4.806385     3.0997    158.000 4.9939e-02    18.3003    36.5022  1027.0369    26.3480    4.24162         25 0.0000e+00
      63161 166.663896     -0.873    158.108    18.3502   4.809165     3.1035    157.000 5.0062e-02    18.3225    36.5067  1027.0304    26.3459    4.24586         28 0.0000e+00
      63201 166.663916     -0.647    157.078    18.3770   4.812481     3.1054    156.000 5.1526e-02    18.3493    36.5116  1027.0228    26.3429    4.24659         35 0.0000e+00
      63252 166.663940     -0.460    156.112    18.4092   4.816603     3.1049    155.000 5.0035e-02    18.3817    36.5184  1027.0156    26.3399    4.24245         33 0.0000e+00
      63279 166.663954     -0.743    155.097    18.4424   4.821062     3.1067    154.000 5.0650e-02    18.4151    36.5272  1027.0095    26.3382    4.24218         18 0.0000e+00
      63299 166.663963     -1.031    154.197    18.4819   4.825554     3.1085    153.000 4.9999e-02    18.4547    36.5307  1026.9981    26.3309    4.24167         10 0.0000e+00
      63331 166.663979     -0.939    153.086    18.4948   4.827433     3.1124    152.000 5.0488e-02    18.4678    36.5356  1026.9938    26.3314    4.24690         31 0.0000e+00
      63388 166.664006     -0.408    152.083    18.5695   4.836774     3.1169    151.000 4.9647e-02    18.5425    36.5492  1026.9807    26.3228    4.24803         38 0.0000e+00
      63451 166.664036     -0.381    151.075    18.6117   4.842137     3.1200    150.000 5.0904e-02    18.5849    36.5576  1026.9719    26.3184    4.24946         36 0.0000e+00
      63485 166.664053     -0.633    150.052    18.6339   4.844853     3.1169    149.000 5.1650e-02    18.6073    36.5613  1026.9646    26.3156    4.24171         18 0.0000e+00
      63508 166.664064     -0.910    149.093    18.6717   4.850232     3.1224    148.000 5.1097e-02    18.6452    36.5738  1026.9602    26.3155    4.24752         18 0.0000e+00
      63541 166.664080     -0.828    148.060    18.7209   4.855708     3.1245    147.000 4.9718e-02    18.6945    36.5769  1026.9455    26.3054    4.24681         29 0.0000e+00
      63623 166.664120     -0.257    147.098    18.7478   4.859103     3.1274    146.000 5.0805e-02    18.7216    36.5822  1026.9384    26.3025    4.24918         17 0.0000e+00
      63680 166.664147     -0.392    146.257    18.7639   4.861139     3.1278    145.000 5.1415e-02    18.7378    36.5855  1026.9331    26.3009    4.24808         20 0.0000e+00
      63756 166.664184     -0.341    145.078    18.7967   4.865461     3.1334    144.000 5.3063e-02    18.7708    36.5933  1026.9255    26.2984    4.25445         29 0.0000e+00
      63807 166.664208     -0.468    144.111    18.8282   4.869477     3.1355    143.000 4.9520e-02    18.8025    36.5998  1026.9181    26.2953    4.25494         27 0.0000e+00
      63840 166.664224     -0.769    143.051    18.8642   4.873882     3.1368    142.000 5.2706e-02    18.8386    36.6055  1026.9085    26.2904    4.25372         31 0.0000e+00
      63884 166.664245     -0.587    141.975    18.8797   4.876017     3.1363    141.000 4.9913e-02    18.8542    36.6102  1026.9035    26.2900    4.25080         35 0.0000e+00
      63915 166.664260     -0.667    140.991    18.9493   4.885227     3.1390    140.000 5.2776e-02    18.9240    36.6267  1026.8937    26.2847    4.24925         22 0.0000e+00
      63937 166.664271     -0.903    140.055    18.9943   4.891016     3.1437    139.000 5.0424e-02    18.9691    36.6360  1026.8851    26.2802    4.25331         20 0.0000e+00
      63964 166.664284     -0.992    138.976    19.0634   4.899428     3.1455    138.000 5.1229e-02    19.0383    36.6461  1026.8702    26.2701    4.25017         22 0.0000e+00
      63994 166.664298     -0.882    137.966    19.0824   4.901923     3.1451    137.000 5.3185e-02    19.0575    36.6507  1026.8643    26.2687    4.24740         30 0.0000e+00
      64031 166.664316     -0.667    136.948    19.1209   4.907155     3.1488    136.000 5.3746e-02    19.0961    36.6610  1026.8577    26.2665    4.25000         32 0.0000e+00
      64064 166.664332     -0.697    135.957    19.1896   4.915947     3.1550    135.000 5.6098e-02    19.1650    36.6744  1026.8458    26.2590    4.25459         28 0.0000e+00
      64097 166.664348     -0.769    134.928    19.2391   4.922201     3.1564    134.000 5.6399e-02    19.2146    36.6836  1026.8353    26.2531    4.25244         20 0.0000e+00
      64134 166.664366     -0.662    133.960    19.3042   4.930334     3.1595    133.000 5.7636e-02    19.2798    36.6947  1026.8226    26.2447    4.25201         35 0.0000e+00
      64175 166.664386     -0.580    132.959    19.3395   4.935097     3.1579    132.000 5.7003e-02    19.3153    36.7038  1026.8159    26.2424    4.24577         33 0.0000e+00
      64209 166.664402     -0.677    131.961    19.3833   4.940915     3.1603    131.000 5.8038e-02    19.3592    36.7142  1026.8080    26.2389    4.24567         30 0.0000e+00
      64240 166.664417     -0.803    130.909    19.4388   4.948162     3.1617    130.000 5.9564e-02    19.4148    36.7262  1026.7980    26.2335    4.24299         21 0.0000e+00
      64271 166.664432     -0.816    129.904    19.4862   4.953908     3.1664    129.000 6.0540e-02    19.4624    36.7328  1026.7862    26.2261    4.24686         35 0.0000e+00
      64315 166.664453     -0.548    128.892    19.5458   4.962183     3.1728    128.000 6.5018e-02    19.5221    36.7496  1026.7789    26.2234    4.25223         41 0.0000e+00
      64350 166.664470     -0.607    127.921    19.6546   4.976368     3.1732    127.000 6.7447e-02    19.6310    36.7723  1026.7632    26.2121    4.24369         20 0.0000e+00
      64385 166.664487     -0.726    126.894    19.6891   4.980197     3.1730    126.000 6.7989e-02    19.6657    36.7742  1026.7510    26.2044    4.24001         41 0.0000e+00
      64425 166.664506     -0.608    125.857    19.7216   4.984663     3.1733    125.000 7.0926e-02    19.6984    36.7830  1026.7446    26.2025    4.23719         34 0.0000e+00
      64465 166.664526     -0.585    124.852    19.7655   4.990240     3.1768    124.000 7.0207e-02    19.7424    36.7911  1026.7348    26.1971    4.23913         28 0.0000e+00
      64496 166.664540     -0.733    123.869    19.7924   4.993634     3.1771    123.000 7.0004e-02    19.7695    36.7960  1026.7270    26.1936    4.23693         32 0.0000e+00
      64524 166.664554     -0.818    122.836    19.8031   4.995142     3.1765    122.000 7.0916e-02    19.7803    36.7995  1026.7224    26.1935    4.23446         25 0.0000e+00
      64547 166.664565     -0.970    121.833    19.8494   5.002604     3.1820    121.000 6.7786e-02    19.8268    36.8210  1026.7221    26.1976    4.23925         17 0.0000e+00
      64569 166.664576     -1.069    120.846    19.9466   5.013419     3.1853    120.000 7.1194e-02    19.9241    36.8256  1026.6953    26.1752    4.23695         24 0.0000e+00
      64596 166.664589     -0.970    119.817    19.9614   5.015374     3.1867    119.000 7.1428e-02    19.9391    36.8291  1026.6896    26.1740    4.23754         28 0.0000e+00
      64624 166.664602     -0.892    118.809    19.9870   5.018809     3.1911    118.000 7.2362e-02    19.9649    36.8354  1026.6832    26.1719    4.24238         27 0.0000e+00
      64651 166.664615     -0.876    117.799    20.0032   5.020651     3.1940    117.000 7.6685e-02    19.9812    36.8369  1026.6755    26.1687    4.24543         26 0.0000e+00
      64678 166.664628     -0.894    116.792    20.0060   5.021007     3.1949    116.000 7.4248e-02    19.9842    36.8377  1026.6710    26.1685    4.24623         22 0.0000e+00
      64703 166.664640     -0.954    115.791    20.0184   5.022453     3.1971    115.000 7.5639e-02    19.9968    36.8392  1026.6645    26.1663    4.24833         27 0.0000e+00
      64729 166.664653     -0.943    114.782    20.0208   5.022721     3.2004    114.000 7.5553e-02    19.9994    36.8396  1026.6598    26.1659    4.25328         24 0.0000e+00
      64755 166.664665     -0.926    113.770    20.0445   5.025568     3.2069    113.000 8.0968e-02    20.0232    36.8428  1026.6514    26.1620    4.26187         23 0.0000e+00
      64783 166.664679     -0.878    112.784    20.0640   5.027443     3.2163    112.000 8.7874e-02    20.0430    36.8414  1026.6409    26.1557    4.27577         23 0.0000e+00
      64809 166.664691     -0.889    111.761    20.0920   5.030023     3.2254    111.000 9.7273e-02    20.0711    36.8386  1026.6267    26.1460    4.28871         27 0.0000e+00
      64832 166.664702     -0.997    110.745    20.1143   5.032704     3.2313    110.000 9.9304e-02    20.0935    36.8415  1026.6186    26.1423    4.29637         22 0.0000e+00
      64854 166.664713     -1.072    109.749    20.1395   5.035731     3.2365    109.000 1.0843e-01    20.1189    36.8448  1026.6100    26.1380    4.30261         22 0.0000e+00
      64876 166.664724     -1.113    108.735    20.1794   5.041005     3.2409    108.000 1.1242e-01    20.1590    36.8536  1026.6016    26.1340    4.30628         20 0.0000e+00
      64899 166.664735     -1.064    107.740    20.2463   5.049202     3.2456    107.000 1.2464e-01    20.2260    36.8629  1026.5863    26.1231    4.30826         24 0.0000e+00
      64924 166.664747     -0.979    106.722    20.3067   5.057451     3.2510    106.000 1.3321e-01    20.2866    36.8782  1026.5772    26.1185    4.31184         25 0.0000e+00
      64950 166.664759     -0.966    105.721    20.3653   5.064209     3.2598    105.000 1.4421e-01    20.3453    36.8829  1026.5606    26.1063    4.32162         26 0.0000e+00
      64980 166.664774     -0.850    104.710    20.3908   5.067541     3.2645    104.000 1.4480e-01    20.3710    36.8882  1026.5534    26.1034    4.32680         32 0.0000e+00
      65011 166.664789     -0.774    103.700    20.5394   5.089944     3.2704    103.000 1.3291e-01    20.5197    36.9421  1026.5497    26.1043    4.32361         28 0.0000e+00
      65038 166.664802     -0.844    102.696    20.7304   5.114116     3.2608    102.000 1.2865e-01    20.7108    36.9732  1026.5169    26.0761    4.29168         26 0.0000e+00
      65065 166.664815     -0.900    101.684    20.8556   5.130735     3.2509    101.000 1.2304e-01    20.8360    36.9998  1026.4984    26.0622    4.26449         28 0.0000e+00
      65093 166.664828     -0.886    100.684    20.9164   5.138624     3.2460    100.000 1.2473e-01    20.8970    37.0112  1026.4860    26.0542    4.25094         26 0.0000e+00
      65122 166.664842     -0.833     99.677    20.9427   5.141998     3.2458     99.000 1.2302e-01    20.9234    37.0161  1026.4782    26.0507    4.24785         29 0.0000e+00
      65149 166.664855     -0.851     98.661    20.9921   5.148549     3.2483     98.000 1.3507e-01    20.9731    37.0266  1026.4681    26.0451    4.24765         22 0.0000e+00
      65171 166.664866     -1.000     97.657    21.0159   5.150874     3.2556     97.000 1.4777e-01    20.9970    37.0251  1026.4560    26.0374    4.25746         23 0.0000e+00
      65193 166.664877     -1.097     96.655    21.0352   5.153619     3.2630     96.000 1.6407e-01    21.0165    37.0310  1026.4508    26.0365    4.26760         19 0.0000e+00
      65215 166.664887     -1.112     95.652    21.0441   5.154347     3.2685     95.000 1.7522e-01    21.0256    37.0295  1026.4428    26.0328    4.27558         25 0.0000e+00
      65248 166.664903     -0.841     94.641    21.0449   5.154435     3.2699     94.000 1.6902e-01    21.0266    37.0299  1026.4385    26.0328    4.27729         40 0.0000e+00
      65296 166.664926     -0.481     93.635    21.0670   5.157568     3.2655     93.000 1.5230e-01    21.0489    37.0364  1026.4330    26.0317    4.26748         43 0.0000e+00
      65331 166.664943     -0.646     92.621    21.0854   5.159854     3.2603     92.000 1.6801e-01    21.0674    37.0393  1026.4258    26.0288    4.25683         28 0.0000e+00
      65359 166.664956     -0.832     91.618    21.0936   5.160841     3.2646     91.000 1.6655e-01    21.0758    37.0405  1026.4201    26.0274    4.26280         27 0.0000e+00
      65387 166.664970     -0.865     90.610    21.0922   5.159607     3.2733     90.000 1.7221e-01    21.0747    37.0321  1026.4096    26.0213    4.27702         30 0.0000e+00
      65413 166.664983     -0.894     89.601    21.1014   5.159838     3.2839     89.000 1.8908e-01    21.0840    37.0264  1026.3984    26.0144    4.29357         22 0.0000e+00
      65437 166.664994     -0.976     88.598    21.1269   5.162859     3.2884     88.000 2.1229e-01    21.1097    37.0290  1026.3890    26.0093    4.29853         24 0.0000e+00
      65461 166.665006     -1.020     87.591    21.1462   5.165199     3.2919     87.000 2.3235e-01    21.1292    37.0316  1026.3813    26.0059    4.30220         25 0.0000e+00
      65490 166.665020     -0.889     86.581    21.1749   5.168646     3.2957     86.000 2.2452e-01    21.1581    37.0349  1026.3714    26.0004    4.30562         31 0.0000e+00
      65520 166.665034     -0.793     85.574    21.2157   5.174038     3.2983     85.000 2.2578e-01    21.1990    37.0434  1026.3622    25.9956    4.30611         27 0.0000e+00
      65546 166.665047     -0.870     84.570    21.2467   5.177781     3.2969     84.000 2.3855e-01    21.2303    37.0470  1026.3520    25.9897    4.30089         25 0.0000e+00
      65571 166.665059     -0.952     83.561    21.2952   5.184185     3.3031     83.000 2.5462e-01    21.2789    37.0570  1026.3417    25.9838    4.30667         26 0.0000e+00
      65600 166.665073     -0.889     82.555    21.3293   5.188008     3.3054     82.000 2.5850e-01    21.3132    37.0586  1026.3291    25.9755    4.30736         30 0.0000e+00
      65633 166.665089     -0.747     81.551    21.3833   5.195630     3.3154     81.000 2.4162e-01    21.3674    37.0735  1026.3210    25.9718    4.31889         33 0.0000e+00
      65664 166.665104     -0.755     80.536    21.4568   5.204383     3.3234     80.000 2.5609e-01    21.4410    37.0806  1026.3016    25.9568    4.32577         29 0.0000e+00
      65691 166.665117     -0.865     79.531    21.4724   5.206650     3.3302     79.000 2.6376e-01    21.4568    37.0857  1026.2967    25.9562    4.33511         24 0.0000e+00
      65714 166.665128     -0.983     78.526    21.5090   5.211132     3.3345     78.000 2.7215e-01    21.4936    37.0904  1026.2856    25.9495    4.33882         18 0.0000e+00
      65738 166.665139     -1.022     77.529    21.5299   5.213867     3.3389     77.000 2.7163e-01    21.5147    37.0946  1026.2787    25.9468    4.34372         28 0.0000e+00
      65767 166.665153     -0.905     76.516    21.5597   5.217927     3.3419     76.000 2.8871e-01    21.5447    37.1017  1026.2714    25.9439    4.34576         30 0.0000e+00
      65800 166.665169     -0.739     75.505    21.5960   5.222635     3.3498     75.000 2.7029e-01    21.5811    37.1085  1026.2619    25.9388    4.35525         31 0.0000e+00
      65828 166.665183     -0.815     74.492    21.6459   5.228893     3.3520     74.000 2.9072e-01    21.6312    37.1158  1026.2491    25.9304    4.35430         22 0.0000e+00
      65851 166.665194     -0.970     73.497    21.7236   5.239721     3.3572     73.000 3.0468e-01    21.7091    37.1356  1026.2380    25.9236    4.35588         24 0.0000e+00
      65875 166.665206     -1.023     72.486    21.8361   5.253056     3.3634     72.000 3.2433e-01    21.8217    37.1454  1026.2093    25.8994    4.35683         26 0.0000e+00
      65903 166.665219     -0.911     71.479    21.9736   5.271476     3.3730     71.000 3.1790e-01    21.9593    37.1741  1026.1878    25.8823    4.36098         29 0.0000e+00
      65932 166.665233     -0.826     70.470    22.2375   5.305633     3.3877     70.000 3.3310e-01    22.2234    37.2183  1026.1417    25.8409    4.36348         29 0.0000e+00
      65960 166.665246     -0.860     69.461    22.4735   5.333115     3.4008     69.000 3.4552e-01    22.4595    37.2333  1026.0811    25.7848    4.36627         25 0.0000e+00
      65985 166.665259     -0.918     68.460    22.6454   5.353661     3.4079     68.000 3.8411e-01    22.6314    37.2482  1026.0385    25.7466    4.36396         24 0.0000e+00
      66010 166.665270     -0.987     67.449    22.7178   5.362182     3.4152     67.000 4.0934e-01    22.7041    37.2535  1026.0172    25.7297    4.36977         23 0.0000e+00
      66034 166.665282     -0.984     66.447    22.7541   5.366062     3.4150     66.000 4.0734e-01    22.7405    37.2533  1026.0022    25.7191    4.36616         23 0.0000e+00
      66059 166.665294     -0.995     65.439    22.7734   5.368633     3.4141     65.000 4.3137e-01    22.7600    37.2573  1025.9954    25.7165    4.36264         27 0.0000e+00
      66084 166.665306     -0.952     64.430    22.8752   5.382651     3.4245     64.000 4.2780e-01    22.8620    37.2805  1025.9789    25.7045    4.37066         22 0.0000e+00
      66106 166.665317     -1.015     63.419    23.0234   5.399581     3.4316     63.000 4.3497e-01    23.0104    37.2867  1025.9361    25.6661    4.37037         21 0.0000e+00
      66128 166.665327     -1.094     62.421    23.0504   5.403093     3.4354     62.000 3.9949e-01    23.0375    37.2915  1025.9276    25.6618    4.37364         22 0.0000e+00
      66151 166.665339     -1.093     61.410    23.0725   5.405721     3.4439     61.000 4.1957e-01    23.0598    37.2935  1025.9183    25.6568    4.38500         23 0.0000e+00
      66177 166.665351     -0.980     60.407    23.0862   5.407224     3.4491     60.000 3.9644e-01    23.0738    37.2939  1025.9102    25.6530    4.39171         27 0.0000e+00
      66209 166.665367     -0.801     59.400    23.0916   5.407778     3.4534     59.000 3.5929e-01    23.0793    37.2940  1025.9044    25.6515    4.39765         37 0.0000e+00
      66245 166.665384     -0.651     58.394    23.0952   5.408144     3.4542     58.000 3.1725e-01    23.0831    37.2941  1025.8991    25.6505    4.39796         25 0.0000e+00
      66272 166.665397     -0.819     57.386    23.1029   5.408866     3.4595     57.000 3.5678e-01    23.0910    37.2935  1025.8920    25.6477    4.40534         28 0.0000e+00
      66297 166.665409     -0.911     56.373    23.1038   5.408904     3.4630     56.000 3.2824e-01    23.0921    37.2935  1025.8873    25.6474    4.41022         24 0.0000e+00
      66320 166.665420     -1.008     55.366    23.1044   5.408879     3.4618     55.000 3.2006e-01    23.0929    37.2931  1025.8825    25.6468    4.40767         23 0.0000e+00
      66343 166.665431     -1.071     54.361    23.1048   5.408841     3.4639     54.000 3.4116e-01    23.0936    37.2928  1025.8778    25.6464    4.41048         22 0.0000e+00
      66367 166.665442     -1.051     53.359    23.1053   5.408844     3.4647     53.000 3.2963e-01    23.0943    37.2927  1025.8733    25.6461    4.41102         26 0.0000e+00
      66396 166.665457     -0.896     52.352    23.1058   5.408780     3.4627     52.000 3.5780e-01    23.0950    37.2922  1025.8684    25.6456    4.40721         33 0.0000e+00
      66438 166.665477     -0.558     51.339    23.1029   5.408431     3.4639     51.000 3.1234e-01    23.0923    37.2923  1025.8650    25.6464    4.40883         35 0.0000e+00
      66469 166.665492     -0.696     50.343    23.1064   5.408734     3.4654     50.000 2.9837e-01    23.0960    37.2920  1025.8594    25.6451    4.41031         27 0.0000e+00
      66493 166.665503     -0.928     49.325    23.1062   5.408672     3.4673     49.000 2.8925e-01    23.0961    37.2920  1025.8551    25.6451    4.41273         21 0.0000e+00
      66516 166.665514     -1.040     48.330    23.1067   5.408654     3.4667     48.000 3.0575e-01    23.0967    37.2919  1025.8506    25.6448    4.41119         23 0.0000e+00
      66541 166.665527     -1.005     47.315    23.1070   5.408660     3.4652     47.000 3.3020e-01    23.0972    37.2920  1025.8462    25.6447    4.40817         27 0.0000e+00
      66570 166.665541     -0.866     46.322    23.1077   5.408683     3.4656     46.000 3.2462e-01    23.0981    37.2919  1025.8416    25.6444    4.40811         24 0.0000e+00
      66600 166.665555     -0.824     45.317    23.1112   5.409054     3.4691     45.000 3.0620e-01    23.1018    37.2922  1025.8365    25.6435    4.41288         31 0.0000e+00
      66631 166.665570     -0.780     44.293    23.1134   5.409271     3.4744     44.000 3.0250e-01    23.1042    37.2924  1025.8316    25.6430    4.42056         29 0.0000e+00
      66661 166.665585     -0.792     43.288    23.1175   5.409762     3.4729     43.000 2.7980e-01    23.1085    37.2931  1025.8265    25.6422    4.41728         32 0.0000e+00
      66693 166.665600     -0.769     42.280    23.1190   5.409946     3.4741     42.000 3.0197e-01    23.1103    37.2936  1025.8221    25.6421    4.41847         32 0.0000e+00
      66730 166.665618     -0.678     41.273    23.1196   5.409949     3.4724     41.000 2.7223e-01    23.1111    37.2934  1025.8175    25.6418    4.41508         34 0.0000e+00
      66763 166.665634     -0.688     40.271    23.1200   5.409973     3.4742     40.000 2.8060e-01    23.1116    37.2937  1025.8132    25.6418    4.41730         31 0.0000e+00
      66790 166.665647     -0.839     39.256    23.1201   5.409954     3.4734     39.000 2.8883e-01    23.1120    37.2938  1025.8089    25.6418    4.41543         23 0.0000e+00
      66813 166.665658     -0.993     38.255    23.1237   5.410427     3.4763     38.000 2.9446e-01    23.1158    37.2948  1025.8043    25.6414    4.41919         25 0.0000e+00
      66841 166.665671     -0.947     37.250    23.1254   5.410597     3.4745     37.000 3.2226e-01    23.1177    37.2950  1025.7996    25.6410    4.41559         32 0.0000e+00
      66878 166.665689     -0.686     36.239    23.1247   5.410494     3.4761     36.000 3.1132e-01    23.1172    37.2951  1025.7956    25.6413    4.41754         39 0.0000e+00
      66916 166.665707     -0.614     35.233    23.1261   5.410640     3.4764     35.000 2.9341e-01    23.1188    37.2954  1025.7910    25.6410    4.41730         34 0.0000e+00
      66955 166.665726     -0.634     34.228    23.1247   5.410453     3.4796     34.000 2.8258e-01    23.1177    37.2955  1025.7871    25.6414    4.42188         41 0.0000e+00
      66998 166.665747     -0.564     33.219    23.1263   5.410623     3.4769     33.000 2.8328e-01    23.1194    37.2958  1025.7826    25.6412    4.41693         43 0.0000e+00
      67040 166.665767     -0.579     32.212    23.1300   5.411070     3.4725     32.000 3.0207e-01    23.1234    37.2965  1025.7777    25.6405    4.40900         42 0.0000e+00
      67079 166.665786     -0.594     31.204    23.1363   5.411873     3.4720     31.000 3.1078e-01    23.1298    37.2978  1025.7724    25.6396    4.40718         35 0.0000e+00
      67111 166.665801     -0.732     30.198    23.1394   5.412265     3.4740     30.000 3.1948e-01    23.1332    37.2985  1025.7677    25.6391    4.40940         31 0.0000e+00
      67140 166.665816     -0.811     29.192    23.1411   5.412424     3.4796     29.000 3.1065e-01    23.1351    37.2986  1025.7630    25.6387    4.41767         28 0.0000e+00
      67171 166.665830     -0.807     28.188    23.1426   5.412576     3.4750     28.000 3.0013e-01    23.1367    37.2990  1025.7585    25.6385    4.40963         34 0.0000e+00
      67210 166.665849     -0.637     27.180    23.1426   5.412578     3.4793     27.000 2.7167e-01    23.1370    37.2993  1025.7544    25.6387    4.41586         42 0.0000e+00
      67259 166.665873     -0.488     26.172    23.1450   5.412883     3.4799     26.000 2.5962e-01    23.1396    37.3000  1025.7499    25.6384    4.41604         54 0.0000e+00
      67308 166.665897     -0.489     25.165    23.1486   5.413316     3.4826     25.000 2.6674e-01    23.1434    37.3006  1025.7449    25.6378    4.41931         41 0.0000e+00
      67344 166.665914     -0.641     24.160    23.1506   5.413514     3.4820     24.000 2.8742e-01    23.1456    37.3008  1025.7402    25.6373    4.41762         30 0.0000e+00
      67381 166.665932     -0.679     23.157    23.1546   5.413967     3.4818     23.000 2.8043e-01    23.1498    37.3013  1025.7351    25.6365    4.41649         47 0.0000e+00
      67437 166.665959     -0.399     22.146    23.1561   5.414117     3.4826     22.000 2.4352e-01    23.1515    37.3016  1025.7304    25.6361    4.41707         54 0.0000e+00
      67492 166.665985     -0.444     21.138    23.1579   5.414263     3.4841     21.000 2.3402e-01    23.1535    37.3015  1025.7255    25.6355    4.41863         56 0.0000e+00
      67539 166.666008     -0.516     20.130    23.1587   5.414313     3.4856     20.000 2.4206e-01    23.1546    37.3015  1025.7209    25.6352    4.42042         43 0.0000e+00
      67577 166.666026     -0.614     19.125    23.1602   5.414424     3.4884     19.000 2.4104e-01    23.1562    37.3016  1025.7162    25.6347    4.42409         31 0.0000e+00
      67614 166.666044     -0.667     18.123    23.1617   5.414533     3.4880     18.000 2.3905e-01    23.1579    37.3015  1025.7113    25.6342    4.42277         44 0.0000e+00
      67668 166.666070     -0.439     17.113    23.1632   5.414655     3.4851     17.000 2.2891e-01    23.1597    37.3015  1025.7065    25.6337    4.41751         57 0.0000e+00
      67726 166.666098     -0.414     16.105    23.1657   5.414884     3.4850     16.000 2.4967e-01    23.1624    37.3015  1025.7015    25.6329    4.41650         62 0.0000e+00
      67782 166.666125     -0.430     15.096    23.1667   5.414978     3.4857     15.000 2.1271e-01    23.1636    37.3017  1025.6970    25.6327    4.41694         46 0.0000e+00
      67823 166.666145     -0.587     14.094    23.1693   5.415264     3.4864     14.000 2.2037e-01    23.1664    37.3021  1025.6922    25.6322    4.41727         40 0.0000e+00
      67881 166.666173     -0.398     13.087    23.1749   5.415826     3.4830     13.000 2.1342e-01    23.1721    37.3021  1025.6862    25.6305    4.41090         68 0.0000e+00
      67950 166.666206     -0.415     12.082    23.1811   5.416444     3.4842     12.000 2.0668e-01    23.1786    37.3019  1025.6799    25.6284    4.41167         45 0.0000e+00
      68398 166.666422     -0.218     11.072    23.1851   5.416890     3.4889     11.000 2.0432e-01    23.1828    37.3024  1025.6747    25.6276    4.41828         53 0.0000e+00
      68438 166.666441     -0.264     10.062    23.1865   5.417068     3.4862     10.000 1.9334e-01    23.1844    37.3029  1025.6703    25.6275    4.41326         45 0.0000e+00
      68488 166.666466     -0.513      9.064    23.1908   5.417574     3.4901      9.000 1.9124e-01    23.1889    37.3036  1025.6653    25.6267    4.41850         42 0.0000e+00
      68583 166.666511     -0.266      8.053    23.1916   5.417652     3.4914      8.000 1.8344e-01    23.1899    37.3038  1025.6609    25.6266    4.41988         48 0.0000e+00
      68676 166.666556     -0.295      7.047    23.1942   5.417891     3.4897      7.000 1.9669e-01    23.1928    37.3038  1025.6558    25.6258    4.41634         37 0.0000e+00
      68770 166.666602     -0.376      6.045    23.2005   5.418557     3.4929      6.000 1.6984e-01    23.1992    37.3040  1025.6498    25.6240    4.42040         38 0.0000e+00
      68861 166.666645     -0.247      5.033    23.2049   5.418956     3.4941      5.000 1.7644e-01    23.2038    37.3037  1025.6439    25.6225    4.42143         54 0.0000e+00
      68978 166.666702     -0.236      4.027    23.2223   5.420891     3.4931      4.000 1.7627e-01    23.2214    37.3043  1025.6349    25.6178    4.41792         32 0.0000e+00
      69123 166.666772     -0.232      3.016    23.2397   5.422620     3.4958      3.000 1.7620e-01    23.2391    37.3033  1025.6247    25.6118    4.42033         37 0.0000e+00
      69273 166.666844     -0.399      2.017    23.2643   5.425115     3.4981      2.000 1.8378e-01    23.2639    37.3022  1025.6122    25.6037    4.42148         57 0.0000e+00
      69849 166.667122     -0.424      1.040    23.2831   5.426537 -9.990e-29      1.000 1.6422e-01    23.2829    37.2976  1025.5990    25.5946 -9.990e-29          7 0.0000e+00
