* Sea-Bird SBE 9 Data File:
* FileName = D:\ACEX\brutos\MCTV009.hex
* Software Version Seasave V 7.17
* Temperature SN = 4821
* Conductivity SN = 3367
* Number of Bytes Per Scan = 21
* Number of Voltage Words = 3
* Number of Scans Averaged by the Deck Unit = 1
* System UpLoad Time = Jun 14 2012 08:09:51
** H38 
** NHo Cruzeiro do Sul 
** 222 
** MCTV ACEx 
**   009
**   27 00.30 S
**   046 51.87 W
**   14/06/2012 11:10Z
**   195
** 9P46375-0882 
**   Pesq Catarina Cecilio
# nquan = 16
# nvalues = 177                         
# units = specified
# name 0 = scan: Scan Count
# name 1 = timeJ: Julian Days
# name 2 = dz/dtM: Descent Rate [m/s]
# name 3 = prDM: Pressure, Digiquartz [db]
# name 4 = t090C: Temperature [ITS-90, deg C]
# name 5 = c0S/m: Conductivity [S/m]
# name 6 = sbeox0V: Oxygen Voltage, SBE 43
# name 7 = depSM: Depth [salt water, m]
# name 8 = flSP: Fluorescence, Seapoint
# name 9 = potemp090C: Potential Temperature [ITS-90, deg C]
# name 10 = sal00: Salinity [PSU]
# name 11 = density00: Density [density, Kg/m^3]
# name 12 = sigma-é00: Density [sigma-theta, Kg/m^3]
# name 13 = sbeox0ML/L: Oxygen, SBE 43 [ml/l], WS = 2
# name 14 = nbin: number of scans per bin
# name 15 = flag: flag
# span 0 =      15953,      36791       
# span 1 = 166.347866, 166.357916       
# span 2 =     -0.876,     -0.162       
# span 3 =      1.015,    178.245       
# span 4 =    14.5765,    21.6569       
# span 5 =   4.352851,   5.127903       
# span 6 =     2.6271,     3.4762       
# span 7 =      1.000,    177.000       
# span 8 = 5.3434e-02, 6.8974e-01       
# span 9 =    14.5498,    21.6484       
# span 10 =    35.8729,    36.5233      
# span 11 =  1025.2275,  1027.5300      
# span 12 =    25.2231,    26.7460      
# span 13 =    3.66712,    4.56202      
# span 14 =         17,         74      
# span 15 = 0.0000e+00, 0.0000e+00      
# interval = meters: 1                  
# start_time = Jun 14 2012 08:09:51
# bad_flag = -9.990e-29
# sensor 0 = Frequency  0  temperature, 4821, 05-sep-07
# sensor 1 = Frequency  1  conductivity, 3367, 05-mar-08, cpcor = -9.5700e-08
# sensor 2 = Frequency  2  pressure, 106018, 28-sep-07
# sensor 3 = Extrnl Volt  0  Oxygen, SBE, primary, 0802, 30-nov-07
# sensor 4 = Extrnl Volt  2  Fluorometer, Seapoint, primary
# sensor 5 = Extrnl Volt  4  altimeter
# datcnv_date = Jun 14 2012 08:48:24, 7.17
# datcnv_in = D:\ACEX\brutos\MCTV009.hex D:\ACEX\arqconfig\AC0882mod2.con
# datcnv_skipover = 3421
# filter_date = Jun 14 2012 08:48:49, 7.17
# filter_in = D:\ACEX\dat cnv\MCTV009.cnv
# filter_low_pass_tc_A = 0.150
# filter_low_pass_tc_B = 0.000
# filter_low_pass_A_vars = prDM
# filter_low_pass_B_vars = c0S/m
# alignctd_date = Jun 14 2012 08:49:19, 7.17
# alignctd_in = D:\ACEX\filter\MCTV009.cnv
# alignctd_adv = c0S/m 0.073, sbeox0V 2.000                                                                                                                                                                                          
# wildedit_date = Jun 14 2012 08:50:10, 7.17
# wildedit_in = D:\ACEX\align\MCTV009.cnv
# wildedit_pass1_nstd = 2.0
# wildedit_pass2_nstd = 20.0
# wildedit_pass2_mindelta = 1.000e+002
# wildedit_npoint = 1000
# wildedit_vars = dz/dtM prDM t090C c0S/m sbeox0V flSP
# wildedit_excl_bad_scans = yes
# celltm_date = Jun 14 2012 08:51:40, 7.17
# celltm_in = D:\ACEX\wildedit\MCTV009.cnv
# celltm_alpha = 0.0300, 0.0000
# celltm_tau = 7.0000, 0.0000
# celltm_temp_sensor_use_for_cond = primary, 
# loopedit_date = Jun 14 2012 08:52:52, 7.17
# loopedit_in = D:\ACEX\celltm\MCTV009.cnv
# loopedit_minVelocity = 0.250                                                                                            
# loopedit_surfaceSoak: minDepth = 5.0, maxDepth = 20, useDeckPress = 1                                                   
# loopedit_excl_bad_scans = yes
# Derive_date = Jun 14 2012 08:53:13, 7.17
# Derive_in = D:\ACEX\loopedit\MCTV009.cnv D:\ACEX\arqconfig\AC0882.con
# derive_time_window_docdt = seconds: 2
# binavg_date = Jun 14 2012 08:53:31, 7.17
# binavg_in = D:\ACEX\derive\MCTV009.cnv
# binavg_bintype = meters
# binavg_binsize = 1
# binavg_excl_bad_scans = yes
# binavg_skipover = 0
# binavg_surface_bin = no, min = 0.000, max = 0.000, value = 0.000
# split_date = Jun 14 2012 08:53:59, 7.17
# split_in = D:\ACEX\binavg\MCTV009.cnv
# split_excl_bad_scans = yes
# file_type = ascii
*END*
      15953 166.347866     -0.383    178.245    14.5765   4.353096     2.6345    177.000 9.4821e-02    14.5498    35.8755  1027.5300    26.7460    3.69293         49 0.0000e+00
      19428 166.349543     -0.455    177.239    14.5778   4.353229     2.6317    176.000 9.6824e-02    14.5513    35.8759  1027.5256    26.7460    3.68700         51 0.0000e+00
      21530 166.350556     -0.437    176.221    14.5808   4.353531     2.6318    175.000 9.6554e-02    14.5544    35.8764  1027.5208    26.7457    3.68648         48 0.0000e+00
      21364 166.350476     -0.265    175.209    14.5804   4.353463     2.6322    174.000 9.2645e-02    14.5542    35.8765  1027.5165    26.7458    3.68671         46 0.0000e+00
      21406 166.350496     -0.560    174.208    14.5817   4.353567     2.6313    173.000 9.2228e-02    14.5557    35.8767  1027.5119    26.7456    3.68453         41 0.0000e+00
      21466 166.350525     -0.465    173.209    14.5818   4.353543     2.6289    172.000 9.1800e-02    14.5559    35.8768  1027.5075    26.7456    3.67932         28 0.0000e+00
      21570 166.350575     -0.335    172.199    14.5834   4.353690     2.6308    171.000 9.3193e-02    14.5577    35.8770  1027.5029    26.7455    3.68243         46 0.0000e+00
      21616 166.350597     -0.483    171.191    14.5840   4.353698     2.6307    170.000 9.7695e-02    14.5584    35.8770  1027.4983    26.7453    3.68155         57 0.0000e+00
      21688 166.350632     -0.316    170.178    14.5848   4.353762     2.6314    169.000 9.4765e-02    14.5594    35.8773  1027.4939    26.7453    3.68246         72 0.0000e+00
      21776 166.350675     -0.275    169.169    14.5872   4.353994     2.6347    168.000 9.4515e-02    14.5619    35.8776  1027.4891    26.7450    3.68803         18 0.0000e+00
      21860 166.350715     -0.363    168.172    14.5883   4.354089     2.6320    167.000 9.2383e-02    14.5632    35.8779  1027.4847    26.7449    3.68228         39 0.0000e+00
      21898 166.350734     -0.624    167.157    14.5895   4.354172     2.6311    166.000 9.5154e-02    14.5644    35.8780  1027.4801    26.7448    3.67989         35 0.0000e+00
      21939 166.350753     -0.603    166.160    14.5901   4.354214     2.6321    165.000 9.3306e-02    14.5652    35.8783  1027.4757    26.7448    3.68128         46 0.0000e+00
      22047 166.350805     -0.236    165.135    14.5909   4.354285     2.6299    164.000 9.3629e-02    14.5662    35.8785  1027.4712    26.7448    3.67654         42 0.0000e+00
      22092 166.350827     -0.550    164.136    14.5926   4.354453     2.6293    163.000 9.6338e-02    14.5681    35.8789  1027.4667    26.7447    3.67470         32 0.0000e+00
      22126 166.350844     -0.687    163.132    14.5938   4.354552     2.6281    162.000 9.6698e-02    14.5694    35.8792  1027.4622    26.7446    3.67189         39 0.0000e+00
      22196 166.350877     -0.382    162.120    14.5947   4.354612     2.6289    161.000 9.6096e-02    14.5704    35.8793  1027.4576    26.7445    3.67285         36 0.0000e+00
      22273 166.350914     -0.429    161.114    14.5956   4.354685     2.6305    160.000 9.4879e-02    14.5715    35.8796  1027.4532    26.7444    3.67528         40 0.0000e+00
      22309 166.350932     -0.663    160.112    14.5964   4.354732     2.6297    159.000 9.6239e-02    14.5724    35.8797  1027.4487    26.7443    3.67323         31 0.0000e+00
      22420 166.350986     -0.189    159.089    14.5981   4.354905     2.6284    158.000 9.4313e-02    14.5743    35.8801  1027.4441    26.7442    3.67018         48 0.0000e+00
      22454 166.351001     -0.598    158.108    14.5989   4.354964     2.6271    157.000 9.6198e-02    14.5753    35.8803  1027.4397    26.7442    3.66712         25 0.0000e+00
      22485 166.351017     -0.772    157.090    14.5985   4.354843     2.6280    156.000 9.7857e-02    14.5750    35.8800  1027.4350    26.7440    3.66841         36 0.0000e+00
      22558 166.351052     -0.435    156.076    14.5985   4.354782     2.6330    155.000 9.5075e-02    14.5752    35.8799  1027.4305    26.7439    3.67730         45 0.0000e+00
      22662 166.351102     -0.429    155.077    14.6000   4.354910     2.6354    154.000 9.6506e-02    14.5768    35.8801  1027.4259    26.7437    3.68128         36 0.0000e+00
      22698 166.351120     -0.662    154.063    14.6014   4.355030     2.6361    153.000 9.5420e-02    14.5783    35.8804  1027.4213    26.7435    3.68202         37 0.0000e+00
      22758 166.351148     -0.393    153.055    14.6025   4.355117     2.6358    152.000 9.5194e-02    14.5796    35.8806  1027.4168    26.7434    3.68088         56 0.0000e+00
      22830 166.351183     -0.358    152.048    14.6056   4.355434     2.6395    151.000 9.8504e-02    14.5828    35.8811  1027.4120    26.7431    3.68716         54 0.0000e+00
      22892 166.351213     -0.377    151.039    14.6056   4.355327     2.6414    150.000 9.6464e-02    14.5830    35.8805  1027.4071    26.7426    3.69032         67 0.0000e+00
      22973 166.351252     -0.275    150.036    14.5972   4.354026     2.6726    149.000 8.4654e-02    14.5748    35.8766  1027.4015    26.7414    3.74999         34 0.0000e+00
      23050 166.351289     -0.378    149.041    14.5899   4.352851     2.7091    148.000 8.0629e-02    14.5676    35.8730  1027.3959    26.7402    3.81957         48 0.0000e+00
      23106 166.351316     -0.441    148.023    14.5907   4.352880     2.7287    147.000 8.0561e-02    14.5686    35.8729  1027.3911    26.7399    3.85618         52 0.0000e+00
      23167 166.351346     -0.388    147.010    14.6028   4.354161     2.7411    146.000 7.0319e-02    14.5808    35.8740  1027.3848    26.7381    3.87823         54 0.0000e+00
      23241 166.351381     -0.320    146.012    14.6411   4.358075     2.7865    145.000 6.6543e-02    14.6192    35.8751  1027.3729    26.7306    3.96108         45 0.0000e+00
      23324 166.351421     -0.402    144.993    14.6693   4.361292     2.8249    144.000 6.2746e-02    14.6475    35.8792  1027.3653    26.7275    4.03131         32 0.0000e+00
      23352 166.351434     -0.768    143.992    14.6965   4.364273     2.8421    143.000 6.2288e-02    14.6749    35.8819  1027.3569    26.7237    4.06114         28 0.0000e+00
      23408 166.351462     -0.543    142.981    14.7202   4.366581     2.8671    142.000 5.8221e-02    14.6986    35.8817  1027.3471    26.7183    4.10611         42 0.0000e+00
      23498 166.351505     -0.373    141.970    14.7459   4.369561     2.8923    141.000 5.4039e-02    14.7245    35.8858  1027.3401    26.7159    4.15108         35 0.0000e+00
      23527 166.351519     -0.705    140.967    14.7525   4.370181     2.8941    140.000 5.4887e-02    14.7313    35.8858  1027.3342    26.7144    4.15337         34 0.0000e+00
      23561 166.351535     -0.717    139.964    14.7548   4.370423     2.8968    139.000 5.4129e-02    14.7337    35.8863  1027.3297    26.7143    4.15777         37 0.0000e+00
      23611 166.351560     -0.485    138.951    14.7630   4.371244     2.8985    138.000 5.4892e-02    14.7420    35.8868  1027.3237    26.7128    4.15985         59 0.0000e+00
      23685 166.351595     -0.323    137.944    14.7857   4.373987     2.9000    137.000 5.5248e-02    14.7649    35.8915  1027.3178    26.7114    4.16012         59 0.0000e+00
      23735 166.351619     -0.488    136.940    14.8074   4.376412     2.9008    136.000 5.5670e-02    14.7868    35.8941  1027.3106    26.7086    4.15915         45 0.0000e+00
      23802 166.351652     -0.351    135.930    14.8069   4.376301     2.8987    135.000 5.5379e-02    14.7864    35.8940  1027.3062    26.7086    4.15476         45 0.0000e+00
      23873 166.351686     -0.386    134.929    14.8281   4.378694     2.8924    134.000 5.5216e-02    14.8077    35.8968  1027.2993    26.7061    4.14046         40 0.0000e+00
      23909 166.351704     -0.643    133.915    14.8307   4.378933     2.8919    133.000 5.5372e-02    14.8104    35.8971  1027.2944    26.7057    4.13875         37 0.0000e+00
      23956 166.351726     -0.547    132.910    14.8309   4.378909     2.8892    132.000 5.6482e-02    14.8108    35.8971  1027.2899    26.7056    4.13311         37 0.0000e+00
      24032 166.351763     -0.347    131.906    14.8349   4.379330     2.8867    131.000 5.6106e-02    14.8149    35.8977  1027.2850    26.7052    4.12747         48 0.0000e+00
      24117 166.351804     -0.282    130.892    14.8371   4.379552     2.8872    130.000 5.5614e-02    14.8173    35.8981  1027.2804    26.7050    4.12756         41 0.0000e+00
      24178 166.351833     -0.550    129.892    14.8410   4.379995     2.8852    129.000 5.5324e-02    14.8214    35.8989  1027.2757    26.7047    4.12287         32 0.0000e+00
      24213 166.351850     -0.701    128.882    14.8589   4.382098     2.8830    128.000 5.5871e-02    14.8394    35.9022  1027.2698    26.7033    4.11665         37 0.0000e+00
      24789 166.352128     -0.578    127.880    14.8932   4.386623     2.8820    127.000 5.7578e-02    14.8738    35.9126  1027.2657    26.7037    4.11136         51 0.0000e+00
      25521 166.352481     -0.633    126.867    14.9502   4.392855     2.8809    126.000 5.7481e-02    14.9309    35.9176  1027.2524    26.6950    4.10404         39 0.0000e+00
      25560 166.352500     -0.514    125.873    15.0612   4.406152     2.8924    125.000 5.5707e-02    15.0420    35.9375  1027.2386    26.6858    4.11575         40 0.0000e+00
      25611 166.352524     -0.473    124.855    15.1137   4.411976     2.9057    124.000 5.5564e-02    15.0946    35.9428  1027.2264    26.6782    4.13574         49 0.0000e+00
      25656 166.352546     -0.533    123.843    15.1536   4.416810     2.9172    123.000 5.4831e-02    15.1347    35.9506  1027.2190    26.6753    4.15347         34 0.0000e+00
      25689 166.352562     -0.695    122.839    15.2033   4.422855     2.9290    122.000 5.5477e-02    15.1844    35.9605  1027.2110    26.6718    4.17082         31 0.0000e+00
      25718 166.352576     -0.807    121.831    15.2369   4.426702     2.9393    121.000 5.3434e-02    15.2182    35.9651  1027.2025    26.6678    4.18658         25 0.0000e+00
      25745 166.352589     -0.876    120.828    15.2533   4.428411     2.9481    120.000 5.3490e-02    15.2347    35.9660  1027.1951    26.6649    4.20122         26 0.0000e+00
      25777 166.352604     -0.805    119.828    15.2547   4.428469     2.9542    119.000 5.4370e-02    15.2363    35.9657  1027.1901    26.6642    4.21189         40 0.0000e+00
      25856 166.352642     -0.322    118.803    15.2608   4.429107     2.9520    118.000 5.5093e-02    15.2425    35.9663  1027.1847    26.6633    4.20668         50 0.0000e+00
      26099 166.352760     -0.326    117.807    15.2840   4.431695     2.9470    117.000 5.6858e-02    15.2658    35.9690  1027.1771    26.6602    4.19486         47 0.0000e+00
      26473 166.352940     -0.321    116.801    15.3411   4.438330     2.9208    116.000 6.2792e-02    15.3231    35.9773  1027.1661    26.6537    4.14058         48 0.0000e+00
      26507 166.352956     -0.478    115.798    15.3642   4.440806     2.9076    115.000 6.5897e-02    15.3463    35.9790  1027.1578    26.6499    4.11357         34 0.0000e+00
      26600 166.353001     -0.324    114.781    15.3851   4.443397     2.8971    114.000 6.5187e-02    15.3673    35.9838  1027.1523    26.6488    4.09165         48 0.0000e+00
      26653 166.353027     -0.441    113.777    15.3929   4.444216     2.8968    113.000 6.7177e-02    15.3752    35.9846  1027.1466    26.6476    4.08991         61 0.0000e+00
      26747 166.353072     -0.259    112.770    15.4150   4.446880     2.8959    112.000 6.5501e-02    15.3975    35.9888  1027.1404    26.6459    4.08582         27 0.0000e+00
      26826 166.353110     -0.356    111.757    15.4383   4.449523     2.8911    111.000 7.2859e-02    15.4209    35.9919  1027.1330    26.6430    4.07431         56 0.0000e+00
      26881 166.353137     -0.431    110.756    15.4459   4.450385     2.8876    110.000 6.9756e-02    15.4287    35.9931  1027.1278    26.6421    4.06661         55 0.0000e+00
      26934 166.353162     -0.457    109.744    15.4684   4.452965     2.8810    109.000 7.0739e-02    15.4514    35.9963  1027.1207    26.6395    4.05200         44 0.0000e+00
      26978 166.353183     -0.568    108.741    15.4912   4.455473     2.8707    108.000 7.2719e-02    15.4743    35.9986  1027.1128    26.6361    4.03058         37 0.0000e+00
      27120 166.353252     -0.262    107.725    15.5242   4.459389     2.8537    107.000 7.5162e-02    15.5074    36.0042  1027.1052    26.6329    3.99567         50 0.0000e+00
      27158 166.353270     -0.568    106.723    15.5548   4.463059     2.8532    106.000 7.3911e-02    15.5382    36.0098  1027.0981    26.6303    3.99169         37 0.0000e+00
      27196 166.353289     -0.647    105.718    15.5804   4.465803     2.8483    105.000 7.6162e-02    15.5639    36.0116  1027.0892    26.6259    3.98006         43 0.0000e+00
      27257 166.353318     -0.367    104.706    15.5881   4.466703     2.8377    104.000 8.6613e-02    15.5717    36.0132  1027.0842    26.6253    3.95930         58 0.0000e+00
      27394 166.353384     -0.256    103.705    15.6405   4.472621     2.8134    103.000 9.0839e-02    15.6242    36.0191  1027.0723    26.6179    3.90959         54 0.0000e+00
      27471 166.353421     -0.367    102.695    15.6513   4.473791     2.8070    102.000 8.7685e-02    15.6352    36.0202  1027.0662    26.6163    3.89653         70 0.0000e+00
      27541 166.353455     -0.349    101.688    15.6861   4.477989     2.8057    101.000 8.8244e-02    15.6701    36.0267  1027.0588    26.6133    3.89075         48 0.0000e+00
      27579 166.353473     -0.604    100.682    15.7341   4.483789     2.8023    100.000 9.0748e-02    15.7183    36.0355  1027.0501    26.6091    3.88026         30 0.0000e+00
      27640 166.353503     -0.488     99.682    15.7824   4.489025     2.7972     99.000 9.6941e-02    15.7667    36.0390  1027.0373    26.6008    3.86655         41 0.0000e+00
      27744 166.353553     -0.400     98.671    15.9020   4.503639     2.8020     98.000 9.9227e-02    15.8863    36.0617  1027.0227    26.5908    3.86546         43 0.0000e+00
      27786 166.353573     -0.545     97.665    15.9258   4.506360     2.8028     97.000 1.0274e-01    15.9103    36.0648  1027.0151    26.5877    3.86470         49 0.0000e+00
      27843 166.353600     -0.401     96.658    15.9360   4.507737     2.7992     96.000 1.0158e-01    15.9206    36.0683  1027.0110    26.5880    3.85671         47 0.0000e+00
      27888 166.353622     -0.531     95.646    15.9642   4.510973     2.7996     95.000 1.1064e-01    15.9490    36.0720  1027.0029    26.5843    3.85481         40 0.0000e+00
      27927 166.353641     -0.628     94.646    16.0172   4.517559     2.8005     94.000 1.0711e-01    16.0021    36.0832  1026.9948    26.5807    3.85178         40 0.0000e+00
      27988 166.353670     -0.379     93.631    16.0774   4.524550     2.8041     93.000 1.1024e-01    16.0625    36.0913  1026.9825    26.5730    3.85322         73 0.0000e+00
      28061 166.353705     -0.341     92.625    16.2484   4.544936     2.8213     92.000 1.1710e-01    16.2335    36.1182  1026.9589    26.5541    3.87102         50 0.0000e+00
      28107 166.353728     -0.516     91.621    16.3684   4.559398     2.8310     91.000 1.2081e-01    16.3536    36.1384  1026.9418    26.5416    3.87895         45 0.0000e+00
      28173 166.353760     -0.344     90.614    16.4258   4.566168     2.8426     90.000 1.2400e-01    16.4111    36.1469  1026.9303    26.5346    3.89508         44 0.0000e+00
      28231 166.353788     -0.452     89.612    16.6469   4.594072     2.8664     89.000 1.2508e-01    16.6322    36.1942  1026.9099    26.5189    3.92043         42 0.0000e+00
      28274 166.353809     -0.560     88.598    16.7824   4.609108     2.8817     88.000 1.2962e-01    16.7678    36.2048  1026.8812    26.4949    3.93717         51 0.0000e+00
      28334 166.353837     -0.376     87.588    16.8635   4.619951     2.8967     87.000 1.3319e-01    16.8490    36.2275  1026.8748    26.4930    3.95716         54 0.0000e+00
      28400 166.353869     -0.358     86.587    16.9721   4.632077     2.9066     86.000 1.4070e-01    16.9578    36.2365  1026.8512    26.4739    3.96624         45 0.0000e+00
      28469 166.353902     -0.383     85.581    17.0038   4.636401     2.9128     85.000 1.3941e-01    16.9896    36.2463  1026.8466    26.4738    3.97427         37 0.0000e+00
      28500 166.353917     -0.689     84.573    17.0268   4.639010     2.9159     84.000 1.3520e-01    17.0127    36.2488  1026.8386    26.4702    3.97747         31 0.0000e+00
      28534 166.353933     -0.753     83.566    17.0456   4.641487     2.9190     83.000 1.3501e-01    17.0317    36.2539  1026.8336    26.4696    3.98107         37 0.0000e+00
      28608 166.353969     -0.333     82.556    17.1807   4.658176     2.9364     82.000 1.5111e-01    17.1669    36.2787  1026.8154    26.4560    4.00108         45 0.0000e+00
      28678 166.354003     -0.363     81.555    17.2759   4.669310     2.9495     81.000 1.5990e-01    17.2622    36.2908  1026.7972    26.4422    4.01662         61 0.0000e+00
      28783 166.354054     -0.307     80.553    17.3349   4.676370     2.9585     80.000 1.6878e-01    17.3213    36.2997  1026.7853    26.4348    4.02741         49 0.0000e+00
      29852 166.354569     -0.162     79.530    17.3706   4.679887     2.9727     79.000 1.7298e-01    17.3572    36.2987  1026.7712    26.4252    4.04966         47 0.0000e+00
      29904 166.354594     -0.382     78.525    17.3772   4.680581     2.9737     78.000 1.7501e-01    17.3640    36.2992  1026.7656    26.4240    4.05034         36 0.0000e+00
      29929 166.354607     -0.681     77.522    17.3838   4.681051     2.9733     77.000 1.5849e-01    17.3707    36.2978  1026.7585    26.4213    4.04860         31 0.0000e+00
      29959 166.354621     -0.812     76.519    17.3911   4.681869     2.9767     76.000 1.6016e-01    17.3782    36.2987  1026.7531    26.4202    4.05346         28 0.0000e+00
      30054 166.354667     -0.536     75.509    17.5232   4.697059     2.9873     75.000 1.8288e-01    17.5104    36.3126  1026.7269    26.3986    4.06164         42 0.0000e+00
      30138 166.354707     -0.655     74.506    17.6357   4.709923     2.9935     74.000 2.0311e-01    17.6230    36.3238  1026.7034    26.3796    4.06331         37 0.0000e+00
      30186 166.354730     -0.531     73.493    17.6583   4.712194     2.9980     73.000 2.0098e-01    17.6458    36.3236  1026.6932    26.3738    4.06896         52 0.0000e+00
      30246 166.354759     -0.394     72.486    17.6925   4.715777     3.0055     72.000 2.1751e-01    17.6802    36.3244  1026.6810    26.3660    4.07911         62 0.0000e+00
      30315 166.354793     -0.346     71.489    17.7313   4.720048     3.0112     71.000 2.1384e-01    17.7190    36.3271  1026.6691    26.3585    4.08582         58 0.0000e+00
      30373 166.354821     -0.431     70.470    17.7762   4.724985     3.0225     70.000 2.1127e-01    17.7642    36.3299  1026.6557    26.3496    4.10162         49 0.0000e+00
      30466 166.354865     -0.267     69.463    17.8175   4.729805     3.0358     69.000 2.1266e-01    17.8055    36.3351  1026.6450    26.3433    4.12135         40 0.0000e+00
      30526 166.354895     -0.538     68.457    17.9092   4.740916     3.0490     68.000 2.0365e-01    17.8974    36.3493  1026.6287    26.3315    4.13672         35 0.0000e+00
      30558 166.354910     -0.729     67.453    17.9886   4.750139     3.0609     67.000 1.9422e-01    17.9769    36.3583  1026.6114    26.3186    4.15092         34 0.0000e+00
      30638 166.354948     -0.376     66.443    18.0709   4.758956     3.0771     66.000 2.0152e-01    18.0594    36.3610  1026.5884    26.3001    4.17256         39 0.0000e+00
      30718 166.354987     -0.479     65.458    18.1779   4.772407     3.0937     65.000 2.0631e-01    18.1665    36.3815  1026.5730    26.2891    4.19233         30 0.0000e+00
      30752 166.355004     -0.715     64.437    18.2577   4.781027     3.1017     64.000 2.2144e-01    18.2465    36.3847  1026.5509    26.2715    4.19963         39 0.0000e+00
      30811 166.355032     -0.388     63.423    18.2764   4.782963     3.1095     63.000 2.0760e-01    18.2654    36.3850  1026.5420    26.2670    4.21116         64 0.0000e+00
      30886 166.355068     -0.310     62.419    18.3332   4.789090     3.1128     62.000 2.0421e-01    18.3222    36.3873  1026.5251    26.2545    4.21207         42 0.0000e+00
      30955 166.355101     -0.387     61.425    18.4729   4.805892     3.1172     61.000 2.4961e-01    18.4621    36.4070  1026.5004    26.2343    4.20792         44 0.0000e+00
      31007 166.355126     -0.495     60.405    18.8593   4.847960     3.1054     60.000 2.3770e-01    18.8485    36.4224  1026.4091    26.1477    4.15710         43 0.0000e+00
      31094 166.355169     -0.340     59.403    19.1110   4.872907     3.0856     59.000 2.1547e-01    19.1003    36.4114  1026.3313    26.0745    4.10396         33 0.0000e+00
      31125 166.355183     -0.727     58.393    19.2120   4.882319     3.0794     58.000 2.3959e-01    19.2014    36.4021  1026.2936    26.0413    4.08551         31 0.0000e+00
      31164 166.355202     -0.661     57.388    19.2225   4.882449     3.0718     57.000 2.3353e-01    19.2121    36.3944  1026.2806    26.0326    4.07124         41 0.0000e+00
      31247 166.355242     -0.162     56.385    19.6124   4.925061     3.0603     56.000 2.8936e-01    19.6021    36.4096  1026.1859    25.9426    4.02244         28 0.0000e+00
      31330 166.355282     -0.352     55.372    20.0649   4.976437     3.0594     55.000 2.7815e-01    20.0546    36.4416  1026.0858    25.8473    3.98735         52 0.0000e+00
      31374 166.355303     -0.533     54.360    20.1842   4.989720     3.0580     54.000 2.7473e-01    20.1740    36.4480  1026.0544    25.8203    3.97594         39 0.0000e+00
      31412 166.355322     -0.625     53.356    20.2890   5.002312     3.0622     53.000 2.7341e-01    20.2789    36.4610  1026.0318    25.8022    3.97480         39 0.0000e+00
      31462 166.355346     -0.490     52.349    20.3577   5.010339     3.0721     52.000 2.8521e-01    20.3479    36.4678  1026.0141    25.7888    3.98594         59 0.0000e+00
      31525 166.355376     -0.374     51.342    20.6115   5.041192     3.0839     51.000 3.2564e-01    20.6017    36.5012  1025.9665    25.7458    3.98664         60 0.0000e+00
      31827 166.355522     -0.410     50.337    20.7230   5.053837     3.0945     50.000 3.2764e-01    20.7134    36.5085  1025.9374    25.7211    3.99592         55 0.0000e+00
      32812 166.355997     -0.426     49.333    20.8233   5.065989     3.1078     49.000 3.6396e-01    20.8139    36.5213  1025.9154    25.7035    4.01026         35 0.0000e+00
      32743 166.355964     -0.272     48.320    20.9114   5.074679     3.1231     48.000 3.5141e-01    20.9021    36.5165  1025.8832    25.6757    4.02915         74 0.0000e+00
      32805 166.355993     -0.418     47.311    20.9833   5.083102     3.1398     47.000 3.6108e-01    20.9742    36.5233  1025.8643    25.6612    4.05103         39 0.0000e+00
      32844 166.356012     -0.606     46.310    21.3721   5.123915     3.1811     46.000 4.0604e-01    21.3631    36.5200  1025.7500    25.5515    4.09145         43 0.0000e+00
      32898 166.356038     -0.435     45.301    21.5365   5.127649     3.2583     45.000 6.2377e-01    21.5276    36.4106  1025.6166    25.4225    4.20892         61 0.0000e+00
      32983 166.356079     -0.278     44.298    21.6498   5.127903     3.3402     44.000 6.3149e-01    21.6411    36.3170  1025.5094    25.3196    4.33717         17 0.0000e+00
      33083 166.356128     -0.298     43.287    21.6569   5.123995     3.3784     43.000 6.8974e-01    21.6484    36.2803  1025.4751    25.2896    4.39982         69 0.0000e+00
      33147 166.356158     -0.381     42.281    21.6501   5.122066     3.3822     42.000 6.8600e-01    21.6418    36.2710  1025.4656    25.2844    4.40618         63 0.0000e+00
      33622 166.356387     -0.236     41.274    21.6354   5.118839     3.3946     41.000 6.3156e-01    21.6273    36.2581  1025.4555    25.2787    4.42742         31 0.0000e+00
      34080 166.356608     -0.339     40.268    21.6257   5.116730     3.4030     40.000 6.5349e-01    21.6178    36.2498  1025.4475    25.2750    4.44153         49 0.0000e+00
      34212 166.356672     -0.275     39.254    21.6238   5.115820     3.4045     39.000 6.4717e-01    21.6161    36.2444  1025.4396    25.2714    4.44377         43 0.0000e+00
      34244 166.356688     -0.623     38.256    21.6232   5.114964     3.4027     38.000 6.5944e-01    21.6157    36.2385  1025.4309    25.2670    4.44038         39 0.0000e+00
      34309 166.356719     -0.386     37.246    21.6215   5.114437     3.4137     37.000 5.6596e-01    21.6142    36.2360  1025.4252    25.2655    4.45807         40 0.0000e+00
      34381 166.356754     -0.402     36.240    21.6210   5.114077     3.4158     36.000 5.4144e-01    21.6139    36.2340  1025.4194    25.2640    4.46101         53 0.0000e+00
      34446 166.356785     -0.391     35.235    21.6203   5.113786     3.4192     35.000 5.4731e-01    21.6134    36.2326  1025.4142    25.2632    4.46597         30 0.0000e+00
      34551 166.356835     -0.270     34.221    21.6191   5.113207     3.4178     34.000 5.4644e-01    21.6124    36.2294  1025.4077    25.2610    4.46338         38 0.0000e+00
      34597 166.356858     -0.547     33.220    21.6181   5.112861     3.4197     33.000 5.4042e-01    21.6116    36.2278  1025.4024    25.2600    4.46594         42 0.0000e+00
      34672 166.356894     -0.376     32.212    21.6133   5.111632     3.4262     32.000 5.4307e-01    21.6070    36.2224  1025.3952    25.2572    4.47646         37 0.0000e+00
      34758 166.356935     -0.400     31.206    21.6093   5.110542     3.4338     31.000 5.2134e-01    21.6032    36.2174  1025.3882    25.2545    4.48892         50 0.0000e+00
      34807 166.356959     -0.480     30.201    21.6071   5.110025     3.4330     30.000 5.0740e-01    21.6011    36.2156  1025.3830    25.2536    4.48721         54 0.0000e+00
      34871 166.356990     -0.368     29.193    21.6038   5.109222     3.4352     29.000 4.9311e-01    21.5981    36.2122  1025.3771    25.2519    4.49050         66 0.0000e+00
      34944 166.357025     -0.315     28.184    21.5958   5.107168     3.4444     28.000 5.1592e-01    21.5903    36.2030  1025.3679    25.2470    4.50577         64 0.0000e+00
      34995 166.357050     -0.493     27.182    21.5911   5.106047     3.4443     27.000 5.3600e-01    21.5858    36.1983  1025.3613    25.2448    4.50548         47 0.0000e+00
      35072 166.357087     -0.303     26.168    21.5851   5.104924     3.4474     26.000 4.8327e-01    21.5800    36.1948  1025.3559    25.2437    4.51057         41 0.0000e+00
      35123 166.357111     -0.515     25.165    21.5709   5.102339     3.4487     25.000 4.8573e-01    21.5659    36.1865  1025.3492    25.2413    4.51344         38 0.0000e+00
      35168 166.357133     -0.558     24.162    21.5720   5.102474     3.4494     24.000 4.7971e-01    21.5672    36.1870  1025.3449    25.2413    4.51381         48 0.0000e+00
      35248 166.357172     -0.298     23.151    21.5589   5.100180     3.4470     23.000 4.9403e-01    21.5544    36.1801  1025.3389    25.2396    4.51052         61 0.0000e+00
      35313 166.357203     -0.391     22.148    21.5390   5.096726     3.4525     22.000 4.9210e-01    21.5347    36.1696  1025.3321    25.2371    4.52086         54 0.0000e+00
      35407 166.357248     -0.263     21.135    21.5331   5.095813     3.4577     21.000 4.3531e-01    21.5290    36.1676  1025.3278    25.2372    4.52923         43 0.0000e+00
      35450 166.357269     -0.567     20.134    21.5314   5.095425     3.4549     20.000 4.5982e-01    21.5274    36.1664  1025.3230    25.2367    4.52414         38 0.0000e+00
      35504 166.357295     -0.440     19.128    21.5241   5.094050     3.4551     19.000 4.7205e-01    21.5204    36.1619  1025.3173    25.2352    4.52465         71 0.0000e+00
      35598 166.357340     -0.247     18.116    21.4982   5.089728     3.4600     18.000 4.4449e-01    21.4946    36.1495  1025.3107    25.2330    4.53433         38 0.0000e+00
      35669 166.357375     -0.420     17.112    21.4864   5.087711     3.4626     17.000 4.2647e-01    21.4830    36.1437  1025.3052    25.2318    4.53905         42 0.0000e+00
      35719 166.357399     -0.475     16.107    21.4807   5.086756     3.4627     16.000 4.1553e-01    21.4775    36.1413  1025.3005    25.2315    4.53925         62 0.0000e+00
      35779 166.357428     -0.394     15.100    21.4717   5.085211     3.4595     15.000 4.0947e-01    21.4688    36.1368  1025.2953    25.2305    4.53410         50 0.0000e+00
      35837 166.357456     -0.416     14.094    21.4515   5.081768     3.4648     14.000 4.1582e-01    21.4487    36.1267  1025.2888    25.2283    4.54405         54 0.0000e+00
      35940 166.357505     -0.282     13.085    21.4348   5.078961     3.4694     13.000 3.6910e-01    21.4323    36.1186  1025.2829    25.2268    4.55251         48 0.0000e+00
      36015 166.357541     -0.353     12.076    21.4187   5.076351     3.4705     12.000 3.5107e-01    21.4163    36.1117  1025.2777    25.2259    4.55516         56 0.0000e+00
      36061 166.357564     -0.522     11.075    21.4178   5.076245     3.4662     11.000 3.9608e-01    21.4156    36.1119  1025.2738    25.2263    4.54760         47 0.0000e+00
      36124 166.357594     -0.384     10.066    21.4176   5.076066     3.4669     10.000 3.6640e-01    21.4157    36.1110  1025.2688    25.2256    4.54806         44 0.0000e+00
      36211 166.357636     -0.331      9.060    21.4123   5.075269     3.4700      9.000 3.2646e-01    21.4105    36.1095  1025.2647    25.2258    4.55306         62 0.0000e+00
      36293 166.357676     -0.279      8.050    21.3966   5.072578     3.4711      8.000 3.1536e-01    21.3950    36.1015  1025.2586    25.2241    4.55580         42 0.0000e+00
      36347 166.357702     -0.471      7.048    21.3822   5.070259     3.4702      7.000 3.2348e-01    21.3809    36.0954  1025.2536    25.2233    4.55490         52 0.0000e+00
      36410 166.357732     -0.375      6.040    21.3816   5.070178     3.4671      6.000 2.8095e-01    21.3805    36.0956  1025.2495    25.2236    4.54930         66 0.0000e+00
      36487 166.357769     -0.294      5.029    21.3773   5.069471     3.4701      5.000 2.5862e-01    21.3764    36.0939  1025.2450    25.2234    4.55392         44 0.0000e+00
      36547 166.357798     -0.394      4.029    21.3779   5.069506     3.4713      4.000 2.6171e-01    21.3772    36.0941  1025.2406    25.2233    4.55518         61 0.0000e+00
      36616 166.357832     -0.363      3.020    21.3791   5.069633     3.4741      3.000 2.4923e-01    21.3785    36.0945  1025.2362    25.2233    4.55915         63 0.0000e+00
      36687 166.357866     -0.309      2.011    21.3784   5.069464     3.4762      2.000 2.4508e-01    21.3780    36.0941  1025.2317    25.2231    4.56202         41 0.0000e+00
      36791 166.357916     -0.252      1.015    21.3774   5.069270     3.4756      1.000 1.2023e-01    21.3772    36.0938  1025.2275    25.2231    4.56058         38 0.0000e+00
