* Sea-Bird SBE 9 Data File:
* FileName = D:\ACEX\brutos\MCTV004.hex
* Software Version Seasave V 7.17
* Temperature SN = 4821
* Conductivity SN = 3367
* Number of Bytes Per Scan = 21
* Number of Voltage Words = 3
* Number of Scans Averaged by the Deck Unit = 1
* System UpLoad Time = Jun 12 2012 17:55:28
** H38 
** NHo Cruzeiro do Sul 
** 222 
** MCTV ACEx 
**   004
**   25 54.906 s
**   046 1.015 w
**   12/06/2012 20:55Z
**   205
** 9P46375-0882 
**   Pesq. Catarina Cecilio
# nquan = 16
# nvalues = 166                         
# units = specified
# name 0 = scan: Scan Count
# name 1 = timeJ: Julian Days
# name 2 = dz/dtM: Descent Rate [m/s]
# name 3 = prDM: Pressure, Digiquartz [db]
# name 4 = t090C: Temperature [ITS-90, deg C]
# name 5 = c0S/m: Conductivity [S/m]
# name 6 = sbeox0V: Oxygen Voltage, SBE 43
# name 7 = depSM: Depth [salt water, m]
# name 8 = flSP: Fluorescence, Seapoint
# name 9 = potemp090C: Potential Temperature [ITS-90, deg C]
# name 10 = sal00: Salinity [PSU]
# name 11 = density00: Density [density, Kg/m^3]
# name 12 = sigma-é00: Density [sigma-theta, Kg/m^3]
# name 13 = sbeox0ML/L: Oxygen, SBE 43 [ml/l], WS = 2
# name 14 = nbin: number of scans per bin
# name 15 = flag: flag
# span 0 =      11675,      23366       
# span 1 = 164.752482, 164.758119       
# span 2 =     -1.204,     -0.211       
# span 3 =      1.018,    167.171       
# span 4 =    12.8844,    22.5161       
# span 5 =   4.158864,   5.256532       
# span 6 =     2.4895,     3.4938       
# span 7 =      1.000,    166.000       
# span 8 = 4.8082e-02, 5.0048e-02       
# span 9 =    12.8614,    22.5090       
# span 10 =    35.6330,    36.7639      
# span 11 =  1025.1141,  1027.6525      
# span 12 =    25.1097,    26.9114      
# span 13 =    3.33820,    4.54950      
# span 14 =         18,         65      
# span 15 = 0.0000e+00, 0.0000e+00      
# interval = meters: 1                  
# start_time = Jun 12 2012 17:55:28
# bad_flag = -9.990e-29
# sensor 0 = Frequency  0  temperature, 4821, 05-sep-07
# sensor 1 = Frequency  1  conductivity, 3367, 05-mar-08, cpcor = -9.5700e-08
# sensor 2 = Frequency  2  pressure, 106018, 28-sep-07
# sensor 3 = Extrnl Volt  0  Oxygen, SBE, primary, 0802, 30-nov-07
# sensor 4 = Extrnl Volt  2  Fluorometer, Seapoint, primary
# sensor 5 = Extrnl Volt  4  altimeter
# datcnv_date = Jun 12 2012 18:19:33, 7.17
# datcnv_in = D:\ACEX\brutos\MCTV004.hex D:\ACEX\arqconfig\AC0882mod2.con
# datcnv_skipover = 2761
# filter_date = Jun 12 2012 18:20:05, 7.17
# filter_in = D:\ACEX\dat cnv\MCTV004.cnv
# filter_low_pass_tc_A = 0.150
# filter_low_pass_tc_B = 0.000
# filter_low_pass_A_vars = prDM
# filter_low_pass_B_vars = c0S/m
# alignctd_date = Jun 12 2012 18:20:28, 7.17
# alignctd_in = D:\ACEX\filter\MCTV004.cnv
# alignctd_adv = c0S/m 0.073, sbeox0V 2.000                                                                                                                                                                                          
# wildedit_date = Jun 12 2012 18:20:52, 7.17
# wildedit_in = D:\ACEX\align\MCTV004.cnv
# wildedit_pass1_nstd = 2.0
# wildedit_pass2_nstd = 20.0
# wildedit_pass2_mindelta = 1.000e+002
# wildedit_npoint = 1000
# wildedit_vars = dz/dtM prDM t090C c0S/m sbeox0V flSP
# wildedit_excl_bad_scans = yes
# celltm_date = Jun 12 2012 18:21:18, 7.17
# celltm_in = D:\ACEX\wildedit\MCTV004.cnv
# celltm_alpha = 0.0300, 0.0000
# celltm_tau = 7.0000, 0.0000
# celltm_temp_sensor_use_for_cond = primary, 
# loopedit_date = Jun 12 2012 18:21:51, 7.17
# loopedit_in = D:\ACEX\celltm\MCTV004.cnv
# loopedit_minVelocity = 0.250                                                                                            
# loopedit_surfaceSoak: minDepth = 5.0, maxDepth = 20, useDeckPress = 1                                                   
# loopedit_excl_bad_scans = yes
# Derive_date = Jun 12 2012 18:22:29, 7.17
# Derive_in = D:\ACEX\loopedit\MCTV004.cnv D:\ACEX\arqconfig\AC0882.con
# derive_time_window_docdt = seconds: 2
# binavg_date = Jun 12 2012 18:22:47, 7.17
# binavg_in = D:\ACEX\derive\MCTV004.cnv
# binavg_bintype = meters
# binavg_binsize = 1
# binavg_excl_bad_scans = yes
# binavg_skipover = 0
# binavg_surface_bin = no, min = 0.000, max = 0.000, value = 0.000
# split_date = Jun 12 2012 18:23:09, 7.17
# split_in = D:\ACEX\binavg\MCTV004.cnv
# split_excl_bad_scans = yes
# file_type = ascii
*END*
      11682 164.752485     -0.457    167.171    12.8844   4.158864     2.8858    166.000 4.8770e-02    12.8614    35.6330  1027.6525    26.9114    4.31550         38 0.0000e+00
      11675 164.752482     -0.380    166.150    12.9122   4.161823     2.8884    165.000 4.8812e-02    12.8893    35.6355  1027.6443    26.9078    4.31767         41 0.0000e+00
      11764 164.752524     -0.457    165.137    12.9456   4.165943     2.8899    164.000 4.8730e-02    12.9228    35.6439  1027.6394    26.9075    4.31678         23 0.0000e+00
      11782 164.752533     -0.933    164.137    12.9638   4.168015     2.8905    163.000 4.8845e-02    12.9411    35.6471  1027.6337    26.9063    4.31581         19 0.0000e+00
      11802 164.752543     -1.163    163.129    13.0065   4.172742     2.8903    162.000 4.8901e-02    12.9840    35.6524  1027.6246    26.9018    4.31099         21 0.0000e+00
      11824 164.752554     -1.169    162.116    13.0176   4.173756     2.8910    161.000 4.8893e-02    12.9952    35.6522  1027.6176    26.8993    4.31082         23 0.0000e+00
      11846 164.752564     -1.091    161.117    13.0316   4.175578     2.8905    160.000 4.8556e-02    13.0093    35.6568  1027.6139    26.9001    4.30779         25 0.0000e+00
      11874 164.752577     -0.979    160.103    13.0536   4.177943     2.8902    159.000 4.8661e-02    13.0314    35.6591  1027.6066    26.8974    4.30471         27 0.0000e+00
      11907 164.752594     -0.766    159.103    13.0849   4.181424     2.8850    158.000 4.8844e-02    13.0628    35.6634  1027.5991    26.8943    4.29108         38 0.0000e+00
      11957 164.752618     -0.451    158.088    13.1464   4.189086     2.8792    157.000 4.8968e-02    13.1244    35.6790  1027.5940    26.8939    4.27344         41 0.0000e+00
      11987 164.752632     -0.697    157.075    13.2554   4.200639     2.8723    156.000 4.8833e-02    13.2334    35.6870  1027.5731    26.8779    4.24991         22 0.0000e+00
      12008 164.752642     -0.984    156.081    13.2548   4.200479     2.8712    155.000 4.8620e-02    13.2329    35.6865  1027.5684    26.8776    4.24708         22 0.0000e+00
      12030 164.752653     -1.130    155.075    13.2692   4.202055     2.8758    154.000 4.8727e-02    13.2475    35.6884  1027.5624    26.8760    4.25423         22 0.0000e+00
      12069 164.752672     -0.723    154.063    13.2896   4.204199     2.8853    153.000 4.8761e-02    13.2680    35.6900  1027.5549    26.8731    4.27056         46 0.0000e+00
      12123 164.752698     -0.389    153.048    13.3152   4.207375     2.8917    152.000 4.8804e-02    13.2937    35.6966  1027.5502    26.8729    4.28013         30 0.0000e+00
      12146 164.752709     -0.798    152.046    13.3507   4.211074     2.8947    151.000 4.8613e-02    13.3293    35.6989  1027.5401    26.8674    4.28221         22 0.0000e+00
      12168 164.752719     -1.047    151.041    13.3597   4.212002     2.8968    150.000 4.8628e-02    13.3384    35.6997  1027.5344    26.8662    4.28508         23 0.0000e+00
      12193 164.752732     -1.037    150.035    13.3789   4.214120     2.8992    149.000 4.8923e-02    13.3578    35.7022  1027.5278    26.8641    4.28746         28 0.0000e+00
      12227 164.752748     -0.787    149.023    13.3975   4.216092     2.9010    148.000 4.8934e-02    13.3765    35.7039  1027.5208    26.8616    4.28862         39 0.0000e+00
      12262 164.752765     -0.641    148.013    13.4329   4.220218     2.9035    147.000 4.9316e-02    13.4120    35.7102  1027.5138    26.8591    4.28983         29 0.0000e+00
      12294 164.752780     -0.768    147.013    13.4610   4.222991     2.9039    146.000 4.8943e-02    13.4402    35.7105  1027.5037    26.8536    4.28765         34 0.0000e+00
      12331 164.752798     -0.653    146.005    13.4745   4.224624     2.9047    145.000 4.8939e-02    13.4538    35.7138  1027.4989    26.8533    4.28730         37 0.0000e+00
      12368 164.752816     -0.655    144.992    13.5125   4.228999     2.9063    144.000 4.8837e-02    13.4919    35.7200  1027.4913    26.8502    4.28646         32 0.0000e+00
      12397 164.752830     -0.781    143.978    13.5572   4.233828     2.9066    143.000 4.8791e-02    13.5368    35.7243  1027.4807    26.8442    4.28253         26 0.0000e+00
      12419 164.752841     -0.947    142.975    13.5808   4.236551     2.9070    142.000 4.9046e-02    13.5604    35.7283  1027.4744    26.8424    4.28052         19 0.0000e+00
      12439 164.752850     -1.116    141.985    13.5972   4.238285     2.9050    141.000 4.9241e-02    13.5770    35.7297  1027.4676    26.8401    4.27461         21 0.0000e+00
      12462 164.752861     -1.143    140.970    13.6219   4.241216     2.9048    140.000 4.8679e-02    13.6018    35.7347  1027.4618    26.8388    4.27157         23 0.0000e+00
      12490 164.752875     -0.942    139.963    13.6459   4.243767     2.9092    139.000 4.8970e-02    13.6259    35.7368  1027.4538    26.8354    4.27742         30 0.0000e+00
      12530 164.752894     -0.629    138.950    13.6637   4.245687     2.9163    138.000 4.9091e-02    13.6439    35.7387  1027.4471    26.8331    4.28905         45 0.0000e+00
      12565 164.752911     -0.645    137.937    13.6960   4.249360     2.9208    137.000 4.8551e-02    13.6762    35.7436  1027.4395    26.8301    4.29417         24 0.0000e+00
      12588 164.752922     -0.882    136.943    13.7039   4.250219     2.9222    136.000 4.8737e-02    13.6843    35.7447  1027.4343    26.8293    4.29557         23 0.0000e+00
      12610 164.752932     -1.070    135.931    13.7194   4.252058     2.9260    135.000 4.8781e-02    13.7000    35.7479  1027.4290    26.8285    4.30090         21 0.0000e+00
      12632 164.752943     -1.121    134.924    13.7329   4.253427     2.9311    134.000 4.8893e-02    13.7136    35.7486  1027.4223    26.8262    4.30908         23 0.0000e+00
      12657 164.752955     -1.022    133.914    13.7497   4.255498     2.9364    133.000 4.9113e-02    13.7304    35.7529  1027.4175    26.8260    4.31729         27 0.0000e+00
      12684 164.752968     -0.923    132.912    13.7750   4.258161     2.9398    132.000 4.8888e-02    13.7560    35.7547  1027.4091    26.8220    4.32105         24 0.0000e+00
      12711 164.752982     -0.881    131.908    13.7820   4.258940     2.9450    131.000 4.8887e-02    13.7630    35.7559  1027.4041    26.8215    4.32969         26 0.0000e+00
      12739 164.752995     -0.879    130.895    13.7902   4.259939     2.9468    130.000 4.9263e-02    13.7714    35.7581  1027.3996    26.8215    4.33198         24 0.0000e+00
      12763 164.753006     -0.940    129.890    13.8332   4.264838     2.9491    129.000 4.8825e-02    13.8145    35.7644  1027.3908    26.8173    4.33183         21 0.0000e+00
      12785 164.753017     -1.048    128.887    13.8680   4.268474     2.9480    128.000 4.8790e-02    13.8494    35.7665  1027.3806    26.8116    4.32609         24 0.0000e+00
      12813 164.753031     -0.961    127.878    13.8798   4.269599     2.9444    127.000 4.9041e-02    13.8614    35.7665  1027.3736    26.8090    4.31761         30 0.0000e+00
      12851 164.753049     -0.633    126.862    13.9030   4.272228     2.9431    126.000 4.9011e-02    13.8846    35.7700  1027.3668    26.8068    4.31248         35 0.0000e+00
      12881 164.753063     -0.728    125.868    13.9379   4.275966     2.9427    125.000 4.8891e-02    13.9197    35.7728  1027.3572    26.8016    4.30797         24 0.0000e+00
      12907 164.753076     -0.913    124.850    13.9525   4.277491     2.9414    124.000 4.9078e-02    13.9344    35.7740  1027.3504    26.7994    4.30366         26 0.0000e+00
      12934 164.753089     -0.923    123.849    13.9635   4.278752     2.9406    123.000 4.8922e-02    13.9456    35.7759  1027.3451    26.7985    4.30066         31 0.0000e+00
      12978 164.753110     -0.572    122.833    13.9699   4.279357     2.9374    122.000 4.8751e-02    13.9521    35.7761  1027.3394    26.7973    4.29336         47 0.0000e+00
      13016 164.753128     -0.572    121.828    14.0061   4.283678     2.9269    121.000 4.8790e-02    13.9885    35.7832  1027.3327    26.7951    4.26940         23 0.0000e+00
      13037 164.753139     -0.894    120.834    14.0373   4.287325     2.9121    120.000 4.8782e-02    14.0198    35.7887  1027.3258    26.7927    4.23763         21 0.0000e+00
      13057 164.753148     -1.131    119.816    14.0748   4.291507     2.8963    119.000 4.8601e-02    14.0573    35.7934  1027.3169    26.7883    4.20361         20 0.0000e+00
      13078 164.753158     -1.204    118.813    14.1352   4.298659     2.8752    118.000 4.8778e-02    14.1178    35.8043  1027.3079    26.7840    4.15726         22 0.0000e+00
      13106 164.753172     -0.992    117.804    14.1787   4.303152     2.8476    117.000 4.9014e-02    14.1615    35.8062  1027.2955    26.7761    4.10044         34 0.0000e+00
      13143 164.753190     -0.651    116.794    14.2173   4.307631     2.8208    116.000 4.8761e-02    14.2001    35.8125  1027.2876    26.7727    4.04539         35 0.0000e+00
      13180 164.753208     -0.646    115.787    14.2696   4.313807     2.7975    115.000 4.8766e-02    14.2525    35.8219  1027.2791    26.7687    3.99596         33 0.0000e+00
      13211 164.753222     -0.748    114.783    14.3351   4.321075     2.7730    114.000 4.8714e-02    14.3181    35.8291  1027.2660    26.7602    3.94355         29 0.0000e+00
      13255 164.753244     -0.746    113.779    14.3431   4.321728     2.7511    113.000 4.8715e-02    14.3263    35.8281  1027.2590    26.7577    3.90072         39 0.0000e+00
      13770 164.753492     -0.303    112.771    14.3585   4.323310     2.7184    112.000 4.8750e-02    14.3418    35.8289  1027.2519    26.7550    3.83681         52 0.0000e+00
      13784 164.753499     -0.429    111.764    14.3584   4.323297     2.7218    111.000 4.8461e-02    14.3419    35.8293  1027.2477    26.7553    3.84278         52 0.0000e+00
      13834 164.753523     -0.498    110.759    14.3586   4.323274     2.7191    110.000 4.8550e-02    14.3422    35.8294  1027.2433    26.7553    3.83715         37 0.0000e+00
      13955 164.753581     -0.261    109.738    14.3682   4.324371     2.7149    109.000 4.8542e-02    14.3520    35.8311  1027.2380    26.7545    3.82782         45 0.0000e+00
      13998 164.753602     -0.534    108.756    14.3796   4.325652     2.7112    108.000 4.8709e-02    14.3635    35.8328  1027.2325    26.7533    3.81937         29 0.0000e+00
      14029 164.753617     -0.773    107.735    14.3840   4.326092     2.7097    107.000 4.8661e-02    14.3680    35.8332  1027.2273    26.7527    3.81558         27 0.0000e+00
      14057 164.753631     -0.851    106.723    14.3984   4.327873     2.7061    106.000 4.8694e-02    14.3826    35.8368  1027.2224    26.7522    3.80707         25 0.0000e+00
      14094 164.753648     -0.712    105.723    14.4215   4.330326     2.7003    105.000 4.8701e-02    14.4058    35.8386  1027.2144    26.7486    3.79376         44 0.0000e+00
      14158 164.753679     -0.283    104.709    14.4350   4.331844     2.6938    104.000 4.8654e-02    14.4195    35.8406  1027.2084    26.7472    3.77990         41 0.0000e+00
      14184 164.753692     -0.712    103.702    14.4629   4.334926     2.6855    103.000 4.8405e-02    14.4475    35.8437  1027.2003    26.7436    3.76158         18 0.0000e+00
      14204 164.753701     -1.023    102.720    14.4664   4.335300     2.6784    102.000 4.8854e-02    14.4511    35.8443  1027.1957    26.7433    3.74739         21 0.0000e+00
      14232 164.753715     -0.982    101.698    14.4688   4.335503     2.6730    101.000 4.8759e-02    14.4537    35.8444  1027.1907    26.7428    3.73636         41 0.0000e+00
      14281 164.753738     -0.422    100.684    14.4869   4.337795     2.6671    100.000 4.8598e-02    14.4720    35.8492  1027.1860    26.7426    3.72328         37 0.0000e+00
      14313 164.753754     -0.653     99.688    14.5523   4.345557     2.6537     99.000 4.8559e-02    14.5375    35.8609  1027.1763    26.7374    3.69240         26 0.0000e+00
      14337 164.753765     -0.931     98.675    14.5890   4.349421     2.6358     98.000 4.8354e-02    14.5743    35.8631  1027.1655    26.7311    3.65539         22 0.0000e+00
      14369 164.753781     -0.857     97.664    14.6026   4.350849     2.6116     97.000 4.8647e-02    14.5880    35.8642  1027.1588    26.7289    3.60811         44 0.0000e+00
      14418 164.753804     -0.426     96.649    14.6206   4.353238     2.5930     96.000 4.8574e-02    14.6061    35.8700  1027.1549    26.7295    3.57118         38 0.0000e+00
      14544 164.753865     -0.568     95.656    14.7335   4.366291     2.5702     95.000 4.8607e-02    14.7191    35.8864  1027.1383    26.7175    3.51943         47 0.0000e+00
      14632 164.753908     -0.440     94.638    14.7470   4.367593     2.5674     94.000 4.8660e-02    14.7328    35.8863  1027.1308    26.7144    3.51282         61 0.0000e+00
      14693 164.753937     -0.397     93.639    14.7900   4.372691     2.5663     93.000 4.8522e-02    14.7759    35.8940  1027.1227    26.7109    3.50713         44 0.0000e+00
      14808 164.753992     -0.272     92.623    14.8050   4.373900     2.5372     92.000 4.8418e-02    14.7910    35.8917  1027.1132    26.7058    3.45100         57 0.0000e+00
      14973 164.754072     -0.328     91.624    14.8202   4.375436     2.5322     91.000 4.8531e-02    14.8064    35.8921  1027.1057    26.7028    3.44013         44 0.0000e+00
      15935 164.754536     -0.659     90.616    14.8307   4.376642     2.5274     90.000 4.8369e-02    14.8170    35.8940  1027.1004    26.7019    3.42994         44 0.0000e+00
      16043 164.754588     -0.252     89.592    14.9261   4.387606     2.5179     89.000 4.8622e-02    14.9126    35.9070  1027.0848    26.6909    3.40507         33 0.0000e+00
      16072 164.754602     -0.671     88.593    15.0581   4.401998     2.5085     88.000 4.8318e-02    15.0446    35.9178  1027.0592    26.6700    3.37812         26 0.0000e+00
      16096 164.754614     -0.945     87.595    15.0722   4.403402     2.5012     87.000 4.8255e-02    15.0588    35.9180  1027.0519    26.6670    3.36296         25 0.0000e+00
      16142 164.754636     -0.626     86.585    15.0789   4.404066     2.4926     86.000 4.8466e-02    15.0656    35.9184  1027.0462    26.6658    3.34605         35 0.0000e+00
      16203 164.754665     -0.421     85.580    15.0867   4.404959     2.4896     85.000 4.8102e-02    15.0736    35.9198  1027.0410    26.6651    3.33950         30 0.0000e+00
      16229 164.754678     -0.838     84.572    15.0947   4.405807     2.4895     84.000 4.8391e-02    15.0817    35.9206  1027.0355    26.6639    3.33820         25 0.0000e+00
      16265 164.754695     -0.752     83.565    15.0987   4.406197     2.4906     83.000 4.8326e-02    15.0860    35.9209  1027.0303    26.6632    3.33965         47 0.0000e+00
      16318 164.754721     -0.399     82.552    15.1319   4.410442     2.4977     82.000 4.8491e-02    15.1193    35.9295  1027.0250    26.6624    3.35012         44 0.0000e+00
      16351 164.754737     -0.666     81.545    15.2624   4.425964     2.5152     81.000 4.8358e-02    15.2499    35.9515  1027.0083    26.6503    3.37337         28 0.0000e+00
      16382 164.754752     -0.801     80.548    15.3585   4.436329     2.5387     80.000 4.8082e-02    15.3460    35.9581  1026.9872    26.6338    3.41002         35 0.0000e+00
      16440 164.754780     -0.361     79.529    15.4457   4.447530     2.5783     79.000 4.8380e-02    15.4334    35.9802  1026.9800    26.6311    3.47678         57 0.0000e+00
      16482 164.754800     -0.578     78.527    15.7260   4.480657     2.6312     78.000 4.8462e-02    15.7136    36.0238  1026.9452    26.6012    3.55435         32 0.0000e+00
      16519 164.754818     -0.658     77.523    15.8390   4.493424     2.6736     77.000 4.8409e-02    15.8268    36.0359  1026.9241    26.5846    3.62386         48 0.0000e+00
      16586 164.754850     -0.322     76.511    15.9823   4.511606     2.7212     76.000 4.8638e-02    15.9701    36.0689  1026.9120    26.5771    3.69982         64 0.0000e+00
      16639 164.754876     -0.478     75.504    16.2542   4.544320     2.7794     75.000 4.8812e-02    16.2421    36.1143  1026.8791    26.5490    3.78525         43 0.0000e+00
      16685 164.754898     -0.522     74.499    16.3636   4.556713     2.8456     74.000 4.8603e-02    16.3516    36.1258  1026.8578    26.5323    3.89718         51 0.0000e+00
      16737 164.754923     -0.460     73.490    16.4021   4.562620     2.8863     73.000 4.8614e-02    16.3902    36.1438  1026.8581    26.5371    3.96726         43 0.0000e+00
      16781 164.754944     -0.555     72.490    16.4955   4.572709     2.9253     72.000 4.8788e-02    16.4838    36.1490  1026.8357    26.5192    4.03032         44 0.0000e+00
      16870 164.754987     -0.244     71.475    16.5365   4.577658     2.9534     71.000 4.8714e-02    16.5249    36.1562  1026.8271    26.5150    4.07743         48 0.0000e+00
      16928 164.755015     -0.435     70.477    16.5536   4.579634     2.9631     70.000 4.8871e-02    16.5421    36.1586  1026.8205    26.5128    4.09298         49 0.0000e+00
      16994 164.755047     -0.340     69.465    16.6467   4.590382     2.9703     69.000 4.8815e-02    16.6353    36.1699  1026.8026    26.4995    4.09801         51 0.0000e+00
      17041 164.755070     -0.532     68.461    16.7739   4.602989     2.9698     68.000 4.9045e-02    16.7627    36.1666  1026.7654    26.4667    4.08676         41 0.0000e+00
      17203 164.755148     -0.417     67.450    16.7966   4.603755     2.9693     67.000 4.8807e-02    16.7855    36.1533  1026.7453    26.4511    4.08402         43 0.0000e+00
      17251 164.755171     -0.542     66.445    16.8687   4.611593     2.9772     66.000 4.8839e-02    16.8578    36.1577  1026.7270    26.4372    4.09203         51 0.0000e+00
      17316 164.755202     -0.290     65.439    16.8341   4.607967     2.9765     65.000 4.8990e-02    16.8233    36.1573  1026.7306    26.4452    4.09279         35 0.0000e+00
      17486 164.755284     -0.240     64.426    17.2453   4.656043     3.0268     64.000 4.9006e-02    17.2345    36.2092  1026.6668    26.3863    4.14951         44 0.0000e+00
      17546 164.755313     -0.399     63.423    17.3708   4.670087     3.0400     63.000 4.8664e-02    17.3601    36.2195  1026.6397    26.3637    4.16258         65 0.0000e+00
      17607 164.755343     -0.414     62.419    17.8611   4.733513     3.0825     62.000 4.8840e-02    17.8503    36.3306  1026.5997    26.3286    4.19663         50 0.0000e+00
      18197 164.755627     -0.365     61.412    18.2351   4.779378     3.1495     61.000 4.8996e-02    18.2244    36.3918  1026.5488    26.2825    4.28312         48 0.0000e+00
      18273 164.755663     -0.383     60.399    18.2632   4.783350     3.1574     60.000 4.9041e-02    18.2526    36.4013  1026.5445    26.2827    4.29380         62 0.0000e+00
      18315 164.755684     -0.556     59.396    18.4365   4.807748     3.1726     59.000 4.9049e-02    18.4260    36.4558  1026.5381    26.2808    4.30488         35 0.0000e+00
      18362 164.755707     -0.518     58.388    18.5161   4.816224     3.1850     58.000 4.9030e-02    18.5058    36.4578  1026.5150    26.2621    4.31948         58 0.0000e+00
      18407 164.755728     -0.518     57.378    18.6110   4.830242     3.1986     57.000 4.8802e-02    18.6009    36.4930  1026.5134    26.2650    4.33413         32 0.0000e+00
      18437 164.755743     -0.766     56.375    18.7236   4.843521     3.2157     56.000 4.9054e-02    18.7136    36.5063  1026.4904    26.2464    4.35405         28 0.0000e+00
      18468 164.755758     -0.806     55.371    18.7830   4.850907     3.2309     55.000 4.9044e-02    18.7731    36.5167  1026.4788    26.2392    4.37481         36 0.0000e+00
      18509 164.755777     -0.608     54.361    18.8391   4.857570     3.2439     54.000 4.9160e-02    18.8294    36.5237  1026.4653    26.2301    4.39206         42 0.0000e+00
      18555 164.755800     -0.522     53.355    18.9292   4.868826     3.2512     53.000 4.9090e-02    18.9196    36.5395  1026.4499    26.2191    4.39652         54 0.0000e+00
      18608 164.755825     -0.433     52.343    18.9750   4.874128     3.2606     52.000 4.9329e-02    18.9656    36.5441  1026.4371    26.2108    4.40834         39 0.0000e+00
      18640 164.755841     -0.675     51.347    18.9882   4.872462     3.2568     51.000 4.9202e-02    18.9790    36.5188  1026.4100    26.1880    4.40084         27 0.0000e+00
      18667 164.755853     -0.867     50.335    18.8683   4.849809     3.2398     50.000 4.9247e-02    18.8593    36.4339  1026.3715    26.1537    4.38265         27 0.0000e+00
      18696 164.755867     -0.879     49.331    18.7526   4.829388     3.2161     49.000 4.9186e-02    18.7439    36.3637  1026.3431    26.1296    4.35207         32 0.0000e+00
      18737 164.755887     -0.607     48.320    18.7436   4.826335     3.1996     48.000 4.9325e-02    18.7350    36.3462  1026.3276    26.1185    4.32395         48 0.0000e+00
      18784 164.755910     -0.502     47.317    19.0782   4.862690     3.1997     47.000 4.8862e-02    19.0697    36.3589  1026.2468    26.0422    4.29731         40 0.0000e+00
      18824 164.755929     -0.608     46.307    19.3009   4.884612     3.1866     46.000 4.8975e-02    19.2925    36.3480  1026.1764    25.9763    4.25732         37 0.0000e+00
      18867 164.755950     -0.571     45.302    19.4063   4.894426     3.1777     45.000 4.9083e-02    19.3981    36.3383  1026.1371    25.9414    4.23372         50 0.0000e+00
      18916 164.755974     -0.473     44.290    19.6301   4.928107     3.1943     44.000 4.9191e-02    19.6220    36.4235  1026.1388    25.9477    4.24239         39 0.0000e+00
      18968 164.755999     -0.508     43.288    20.4969   5.040106     3.2037     43.000 4.8975e-02    20.4887    36.5942  1026.0334    25.8473    4.18870         37 0.0000e+00
      19057 164.756042     -0.429     42.288    21.1796   5.128638     3.2196     42.000 4.9108e-02    21.1714    36.7238  1025.9407    25.7593    4.16185         40 0.0000e+00
      19133 164.756079     -0.409     41.271    21.5833   5.172717     3.2185     41.000 4.9262e-02    21.5752    36.7324  1025.8310    25.6542    4.13011         27 0.0000e+00
      19253 164.756136     -0.354     40.280    21.8193   5.201888     3.2332     40.000 4.9090e-02    21.8113    36.7639  1025.7843    25.6119    4.13607         59 0.0000e+00
      19856 164.756427     -0.277     39.255    22.3089   5.250767     3.3134     39.000 4.9376e-02    22.3010    36.7355  1025.6196    25.4518    4.23167         47 0.0000e+00
      19927 164.756461     -0.637     38.254    22.3938   5.256532     3.3377     38.000 4.9232e-02    22.3861    36.7095  1025.5711    25.4077    4.26499         28 0.0000e+00
      19964 164.756479     -0.692     37.249    22.4551   5.255984     3.3743     37.000 4.9274e-02    22.4475    36.6539  1025.5070    25.3479    4.32045         45 0.0000e+00
      20018 164.756505     -0.411     36.237    22.4505   5.255046     3.3938     36.000 4.9587e-02    22.4432    36.6507  1025.5015    25.3467    4.35176         49 0.0000e+00
      20057 164.756524     -0.599     35.232    22.5161   5.253764     3.4328     35.000 4.9694e-02    22.5090    36.5858  1025.4290    25.2785    4.41106         33 0.0000e+00
      20087 164.756538     -0.786     34.227    22.4905   5.249261     3.4503     34.000 4.9390e-02    22.4836    36.5723  1025.4217    25.2756    4.44091         29 0.0000e+00
      20121 164.756555     -0.747     33.222    22.4685   5.244932     3.4610     33.000 4.9538e-02    22.4618    36.5572  1025.4122    25.2703    4.45964         40 0.0000e+00
      20165 164.756576     -0.545     32.211    22.4545   5.242312     3.4630     32.000 4.9590e-02    22.4480    36.5487  1025.4054    25.2678    4.46355         44 0.0000e+00
      20205 164.756595     -0.587     31.202    22.4268   5.237049     3.4652     31.000 4.9681e-02    22.4205    36.5310  1025.3955    25.2622    4.46914         35 0.0000e+00
      20236 164.756610     -0.739     30.201    22.4113   5.233238     3.4624     30.000 4.9493e-02    22.4053    36.5144  1025.3830    25.2540    4.46553         32 0.0000e+00
      20273 164.756628     -0.687     29.195    22.3974   5.230461     3.4611     29.000 4.9585e-02    22.3915    36.5046  1025.3752    25.2505    4.46424         44 0.0000e+00
      20328 164.756655     -0.401     28.182    22.3675   5.223768     3.4663     28.000 4.9440e-02    22.3619    36.4775  1025.3587    25.2383    4.47490         56 0.0000e+00
      20368 164.756674     -0.581     27.177    22.3267   5.214989     3.4689     27.000 4.9472e-02    22.3213    36.4430  1025.3399    25.2237    4.48255         29 0.0000e+00
      20399 164.756689     -0.777     26.172    22.3127   5.211854     3.4715     26.000 4.9740e-02    22.3075    36.4305  1025.3299    25.2181    4.48759         30 0.0000e+00
      20433 164.756705     -0.742     25.167    22.2923   5.207769     3.4710     25.000 4.9503e-02    22.2872    36.4158  1025.3203    25.2127    4.48803         37 0.0000e+00
      20470 164.756723     -0.656     24.161    22.2697   5.202882     3.4773     24.000 4.9353e-02    22.2649    36.3966  1025.3077    25.2044    4.49993         41 0.0000e+00
      20557 164.756765     -0.293     23.146    22.2270   5.194820     3.4725     23.000 4.9767e-02    22.2224    36.3692  1025.2947    25.1957    4.49559         40 0.0000e+00
      20644 164.756807     -0.469     22.155    22.1877   5.187022     3.4736     22.000 4.9869e-02    22.1832    36.3411  1025.2802    25.1854    4.50044         42 0.0000e+00
      21022 164.756989     -0.348     21.140    22.1489   5.180586     3.4796     21.000 4.9814e-02    22.1447    36.3232  1025.2732    25.1827    4.51304         49 0.0000e+00
      21393 164.757168     -0.314     20.134    22.1364   5.178173     3.4770     20.000 4.9766e-02    22.1324    36.3149  1025.2661    25.1799    4.50943         45 0.0000e+00
      21514 164.757227     -0.298     19.122    22.1214   5.175433     3.4794     19.000 4.9784e-02    22.1176    36.3062  1025.2593    25.1775    4.51402         57 0.0000e+00
      21557 164.757248     -0.532     18.114    22.1141   5.173965     3.4772     18.000 4.9785e-02    22.1105    36.3012  1025.2532    25.1757    4.51062         31 0.0000e+00
      21584 164.757260     -0.834     17.112    22.1058   5.172426     3.4799     17.000 4.9756e-02    22.1023    36.2963  1025.2475    25.1743    4.51504         24 0.0000e+00
      21610 164.757273     -0.920     16.111    22.0958   5.170619     3.4815     16.000 4.9898e-02    22.0926    36.2907  1025.2417    25.1728    4.51796         30 0.0000e+00
      21707 164.757320     -0.469     15.099    22.0851   5.168762     3.4838     15.000 4.9715e-02    22.0821    36.2854  1025.2364    25.1717    4.52206         39 0.0000e+00
      21803 164.757366     -0.445     14.089    22.0719   5.166428     3.4881     14.000 4.9958e-02    22.0691    36.2784  1025.2303    25.1700    4.52976         33 0.0000e+00
      21834 164.757381     -0.710     13.089    22.0667   5.165395     3.4880     13.000 4.9810e-02    22.0641    36.2750  1025.2249    25.1689    4.52938         34 0.0000e+00
      21873 164.757400     -0.655     12.082    22.0426   5.160255     3.4825     12.000 4.9923e-02    22.0402    36.2549  1025.2121    25.1604    4.52233         46 0.0000e+00
      22010 164.757466     -0.295     11.072    22.0403   5.160267     3.4883     11.000 4.9906e-02    22.0381    36.2572  1025.2101    25.1627    4.53125         47 0.0000e+00
      22080 164.757499     -0.473     10.065    22.0370   5.159454     3.4918     10.000 5.0036e-02    22.0350    36.2539  1025.2042    25.1611    4.53665         48 0.0000e+00
      22124 164.757521     -0.546      9.059    22.0256   5.157031     3.4878      9.000 4.9870e-02    22.0238    36.2447  1025.1960    25.1572    4.53058         39 0.0000e+00
      22170 164.757543     -0.551      8.062    21.9569   5.142019     3.4812      8.000 4.9899e-02    21.9553    36.1838  1025.1647    25.1302    4.52615         29 0.0000e+00
      22350 164.757630     -0.294      7.040    21.9148   5.134488     3.4930      7.000 4.9697e-02    21.9134    36.1598  1025.1539    25.1237    4.54874         40 0.0000e+00
      22394 164.757651     -0.569      6.044    21.8902   5.129167     3.4885      6.000 4.9760e-02    21.8890    36.1385  1025.1404    25.1145    4.54331         45 0.0000e+00
      22560 164.757731     -0.211      5.027    21.8990   5.131195     3.4928      5.000 5.0048e-02    21.8980    36.1476  1025.1403    25.1188    4.54877         18 0.0000e+00
      22636 164.757767     -0.472      4.030    21.9028   5.132079     3.4938      4.000 4.9877e-02    21.9020    36.1517  1025.1381    25.1208    4.54926         39 0.0000e+00
      22740 164.757818     -0.279      3.018    21.8801   5.127124     3.4907      3.000 4.9730e-02    21.8795    36.1318  1025.1249    25.1120    4.54595         48 0.0000e+00
      22913 164.757901     -0.238      2.017    21.8838   5.128183     3.4929      2.000 4.9588e-02    21.8834    36.1375  1025.1238    25.1152    4.54850         59 0.0000e+00
      23366 164.758119     -0.311      1.018    21.8780   5.126343     3.4935      1.000 4.9847e-02    21.8778    36.1281  1025.1141    25.1097    4.54950         48 0.0000e+00
