* Sea-Bird SBE 19plus V2 Data File:
* FileName = D:\ACEX_ctd\brutos\MCTV026.hex
* Software Version Seasave V 7.17
* Temperature SN = 6161
* Conductivity SN = 6161
* System UpLoad Time = Jun 19 2012 12:46:47
** H38 
** NHo Cruzeiro do Sul 
** 222 
** MCT V 
**   026
**   33 46.02 S
**   051 11.55 W
**   19/06/2012 15:40 Z
**   216
** 9P46375-0882 
**   1T Oliveira Santos
# nquan = 14
# nvalues = 203                         
# units = specified
# name 0 = scan: Scan Count
# name 1 = timeJ: Julian Days
# name 2 = dz/dtM: Descent Rate [m/s]
# name 3 = prdM: Pressure, Strain Gauge [db]
# name 4 = tv290C: Temperature [ITS-90, deg C]
# name 5 = c0S/m: Conductivity [S/m]
# name 6 = depSM: Depth [salt water, m]
# name 7 = oxsatML/L: Oxygen Saturation [ml/l]
# name 8 = flSP: Fluorescence, Seapoint
# name 9 = potemp090C: Potential Temperature [ITS-90, deg C]
# name 10 = sal00: Salinity [PSU]
# name 11 = density00: Density [density, Kg/m^3]
# name 12 = oxsatML/L: Oxygen Saturation [ml/l]
# name 13 = flag: flag
# span 0 =       3180,       6477       
# span 1 = 171.541687, 171.551228       
# span 2 =     -1.286,     -0.071       
# span 3 =      0.903,    204.263       
# span 4 =    15.7593,    20.0983       
# span 5 =   4.451341,   4.965358       
# span 6 =      1.000,    203.000       
# span 7 =    5.11667,    5.57906       
# span 8 = 6.0794e-02, 8.0812e-01       
# span 9 =    15.7271,    20.0873       
# span 10 =    35.6789,    36.3661      
# span 11 =  1025.6087,  1027.2267      
# span 12 =    5.11666,    5.57902      
# span 13 = 0.0000e+00, 0.0000e+00      
# interval = meters: 1                  
# start_time = Jun 19 2012 12:46:47
# bad_flag = -9.990e-29
# sensor 0 = Frequency 0  temperature, 6161, 21-Oct-08
# sensor 1 = Frequency 1  conductivity, 6161, 21-Oct-08, cpcor = -9.5700e-08
# sensor 2 = Pressure Number
# sensor 3 = Extrnl Volt  0  Fluorometer, Seapoint, primary
# sensor 4 = Extrnl Volt  2  altimeter
# datcnv_date = Jun 19 2012 22:04:36, 7.17
# datcnv_in = D:\ACEX_ctd\brutos\MCTV026.hex D:\ACEX_ctd\arqconfig\AC6161.con
# datcnv_skipover = 1
# filter_date = Jun 19 2012 22:05:04, 7.17
# filter_in = D:\ACEX_ctd\dat cnv\MCTV026.cnv
# filter_low_pass_tc_A = 1.000
# filter_low_pass_tc_B = 0.150
# filter_low_pass_A_vars = prdM flSP
# filter_low_pass_B_vars = c0S/m
# alignctd_date = Jun 19 2012 22:05:31, 7.17
# alignctd_in = D:\ACEX_ctd\filter\MCTV026.cnv
# alignctd_adv = c0S/m -0.010                                                                                                                                                                                                        
# wildedit_date = Jun 19 2012 22:06:01, 7.17
# wildedit_in = D:\ACEX_ctd\align\MCTV026.cnv
# wildedit_pass1_nstd = 2.0
# wildedit_pass2_nstd = 20.0
# wildedit_pass2_mindelta = 1.000e+002
# wildedit_npoint = 1000
# wildedit_vars = dz/dtM prdM tv290C c0S/m oxsatML/L flSP
# wildedit_excl_bad_scans = yes
# celltm_date = Jun 19 2012 22:06:23, 7.17
# celltm_in = D:\ACEX_ctd\wildedit\MCTV026.cnv
# celltm_alpha = 0.0300, 0.0000
# celltm_tau = 7.0000, 0.0000
# celltm_temp_sensor_use_for_cond = primary, 
# loopedit_date = Jun 19 2012 22:06:49, 7.17
# loopedit_in = D:\ACEX_ctd\celltm\MCTV026.cnv
# loopedit_minVelocity = 0.250                                                                                            
# loopedit_surfaceSoak: minDepth = 5.0, maxDepth = 20, useDeckPress = 1                                                   
# loopedit_excl_bad_scans = yes
# Derive_date = Jun 19 2012 22:07:17, 7.17
# Derive_in = D:\ACEX_ctd\loopedit\MCTV026.cnv C:\Documents and Settings\Coleta\Desktop\Nova pasta\6161.con
# binavg_date = Jun 19 2012 22:07:39, 7.17
# binavg_in = D:\ACEX_ctd\derive\MCTV026.cnv
# binavg_bintype = meters
# binavg_binsize = 1
# binavg_excl_bad_scans = yes
# binavg_skipover = 0
# binavg_surface_bin = no, min = 0.000, max = 0.000, value = 0.000
# split_date = Jun 20 2012 15:32:55, 7.17
# split_in = D:\ACEX_ctd\binavg\MCTV026.cnv
# split_excl_bad_scans = yes
# file_type = ascii
*END*
       3180 171.541687     -0.412    204.263    15.7593   4.451341    203.000    5.57906 6.0794e-02    15.7271    35.6789  1027.2267    5.57902 0.0000e+00
       3226 171.541820     -0.291    203.221    15.9156   4.467163    202.000    5.56184 6.1513e-02    15.8833    35.6803  1027.1868    5.56177 0.0000e+00
       3248 171.541883     -0.384    202.168    16.0005   4.477264    201.000    5.55203 6.1579e-02    15.9683    35.6945  1027.1734    5.55196 0.0000e+00
       3261 171.541920     -0.555    201.359    16.0266   4.478834    200.000    5.54946 6.2343e-02    15.9946    35.6854  1027.1567    5.54941 0.0000e+00
       3287 171.541996     -0.198    200.077    16.0653   4.482939    199.000    5.54514 6.2481e-02    16.0333    35.6878  1027.1439    5.54510 0.0000e+00
       3292 171.542010     -0.716    199.448    16.0759   4.485068    198.000    5.54367 6.1856e-02    16.0440    35.6975  1027.1461    5.54361 0.0000e+00
       3322 171.542097     -0.246    198.155    16.0948   4.485485    197.000    5.54202 6.4664e-02    16.0631    35.6848  1027.1263    5.54198 0.0000e+00
       3341 171.542154     -0.304    197.186    16.1167   4.488781    196.000    5.53927 6.4999e-02    16.0852    35.6948  1027.1246    5.53925 0.0000e+00
       3359 171.542205     -0.321    196.186    16.1440   4.492171    195.000    5.53610 6.4736e-02    16.1126    35.7009  1027.1185    5.53607 0.0000e+00
       3381 171.542268     -0.235    195.053    16.1889   4.497095    194.000    5.53109 6.3949e-02    16.1576    35.7049  1027.1060    5.53104 0.0000e+00
       3394 171.542306     -0.349    194.167    16.2360   4.504861    193.000    5.52505 6.4985e-02    16.2048    35.7321  1027.1119    5.52501 0.0000e+00
       3409 171.542350     -0.470    193.193    16.3304   4.515803    192.000    5.51443 6.5473e-02    16.2992    35.7450  1027.0953    5.51436 0.0000e+00
       3426 171.542399     -0.172    192.066    16.4159   4.523982    191.000    5.50533 6.5078e-02    16.3848    35.7413  1027.0673    5.50523 0.0000e+00
       3439 171.542435     -0.499    191.176    16.4309   4.525396    190.000    5.50371 6.5731e-02    16.3999    35.7408  1027.0595    5.50364 0.0000e+00
       3462 171.542502     -0.354    189.970    16.4536   4.528135    189.000    5.50109 6.6499e-02    16.4228    35.7451  1027.0521    5.50104 0.0000e+00
       3468 171.542520     -0.818    189.176    16.4574   4.528957    188.000    5.50058 6.6491e-02    16.4268    35.7493  1027.0509    5.50049 0.0000e+00
       3485 171.542569     -0.663    188.177    16.5172   4.536776    187.000    5.49355 6.6736e-02    16.4866    35.7654  1027.0447    5.49353 0.0000e+00
       3499 171.542611     -0.781    187.162    16.5507   4.540391    186.000    5.48990 6.8437e-02    16.5202    35.7678  1027.0341    5.48985 0.0000e+00
       3505 171.542628     -0.764    186.326    16.5847   4.544753    185.000    5.48598 6.7156e-02    16.5543    35.7761  1027.0287    5.48592 0.0000e+00
       3541 171.542733     -0.222    184.912    16.6020   4.545951    184.000    5.48424 7.1598e-02    16.5719    35.7718  1027.0151    5.48421 0.0000e+00
       3545 171.542743     -0.645    184.176    16.6287   4.549304    183.000    5.48119 6.8687e-02    16.5986    35.7779  1027.0102    5.48116 0.0000e+00
       3564 171.542799     -0.395    183.076    16.6464   4.550544    182.000    5.47944 6.8741e-02    16.6165    35.7734  1026.9977    5.47941 0.0000e+00
       3582 171.542851     -0.381    181.970    16.6507   4.550801    181.000    5.47901 6.8636e-02    16.6209    35.7723  1026.9909    5.47899 0.0000e+00
       3595 171.542888     -0.522    181.093    16.6510   4.550766    180.000    5.47898 6.8084e-02    16.6214    35.7720  1026.9868    5.47896 0.0000e+00
       3610 171.542932     -0.781    180.110    16.6511   4.550779    179.000    5.47895 6.8256e-02    16.6217    35.7724  1026.9828    5.47894 0.0000e+00
       3616 171.542947     -0.907    179.342    16.6528   4.550982    178.000    5.47874 6.7944e-02    16.6235    35.7730  1026.9794    5.47874 0.0000e+00
       3648 171.543040     -0.240    177.922    16.6533   4.550912    177.000    5.47870 7.0803e-02    16.6242    35.7725  1026.9727    5.47870 0.0000e+00
       3656 171.543064     -0.537    177.007    16.6537   4.551169    176.000    5.47859 7.1955e-02    16.6248    35.7747  1026.9703    5.47858 0.0000e+00
       3670 171.543106     -0.404    176.043    16.6638   4.552388    175.000    5.47744 6.9039e-02    16.6350    35.7769  1026.9653    5.47744 0.0000e+00
       3684 171.543144     -0.746    175.201    16.6681   4.552753    174.000    5.47699 6.8440e-02    16.6394    35.7766  1026.9604    5.47699 0.0000e+00
       3703 171.543199     -0.347    174.022    16.6749   4.553268    173.000    5.47630 6.9415e-02    16.6464    35.7755  1026.9528    5.47630 0.0000e+00
       3714 171.543233     -0.364    173.048    16.6785   4.554010    172.000    5.47580 7.0557e-02    16.6501    35.7792  1026.9505    5.47579 0.0000e+00
       3737 171.543299     -0.254    171.899    16.6789   4.553706    171.000    5.47584 7.0300e-02    16.6507    35.7767  1026.9433    5.47584 0.0000e+00
       3746 171.543324     -0.584    171.049    16.6765   4.553282    170.000    5.47613 7.0169e-02    16.6485    35.7754  1026.9392    5.47613 0.0000e+00
       3758 171.543358     -0.418    170.090    16.6749   4.553186    169.000    5.47627 6.8110e-02    16.6471    35.7763  1026.9361    5.47627 0.0000e+00
       3774 171.543406     -0.294    168.983    16.6756   4.553343    168.000    5.47615 6.9911e-02    16.6480    35.7775  1026.9319    5.47615 0.0000e+00
       3793 171.543462     -0.192    167.860    16.6785   4.553566    167.000    5.47585 6.8554e-02    16.6510    35.7773  1026.9262    5.47585 0.0000e+00
       3802 171.543487     -0.593    167.040    16.6785   4.553558    166.000    5.47584 6.7682e-02    16.6512    35.7776  1026.9228    5.47584 0.0000e+00
       3817 171.543529     -0.468    166.051    16.6815   4.553795    165.000    5.47553 6.9040e-02    16.6543    35.7774  1026.9176    5.47553 0.0000e+00
       3834 171.543580     -0.325    164.995    16.6808   4.553671    164.000    5.47560 7.2446e-02    16.6538    35.7773  1026.9130    5.47560 0.0000e+00
       3855 171.543641     -0.217    163.800    16.6848   4.554152    163.000    5.47515 6.8354e-02    16.6580    35.7784  1026.9077    5.47514 0.0000e+00
       3861 171.543656     -0.661    163.098    16.6868   4.554557    162.000    5.47486 6.8326e-02    16.6601    35.7805  1026.9057    5.47486 0.0000e+00
       3882 171.543719     -0.528    161.920    16.6899   4.554916    161.000    5.47451 6.8426e-02    16.6634    35.7814  1026.9005    5.47450 0.0000e+00
       3889 171.543740     -0.778    161.130    16.6972   4.555969    160.000    5.47362 6.8007e-02    16.6708    35.7845  1026.8977    5.47362 0.0000e+00
       3911 171.543803     -0.611    159.990    16.6951   4.555290    159.000    5.47397 6.8070e-02    16.6689    35.7808  1026.8903    5.47397 0.0000e+00
       3927 171.543848     -0.444    158.939    16.6935   4.555068    158.000    5.47415 6.8525e-02    16.6674    35.7807  1026.8860    5.47414 0.0000e+00
       3941 171.543887     -0.579    158.003    16.6982   4.556164    157.000    5.47345 6.9802e-02    16.6723    35.7865  1026.8853    5.47345 0.0000e+00
       3956 171.543931     -0.391    157.002    16.7355   4.560421    156.000    5.46934 6.7659e-02    16.7097    35.7911  1026.8754    5.46932 0.0000e+00
       3977 171.543993     -0.261    155.857    16.7330   4.559882    155.000    5.46966 7.0228e-02    16.7074    35.7890  1026.8694    5.46965 0.0000e+00
       3989 171.544027     -0.427    154.928    16.7392   4.560670    154.000    5.46894 6.9585e-02    16.7137    35.7908  1026.8652    5.46893 0.0000e+00
       4011 171.544091     -0.332    153.812    16.7486   4.561414    153.000    5.46799 6.8044e-02    16.7233    35.7894  1026.8570    5.46798 0.0000e+00
       4020 171.544118     -0.691    153.040    16.7499   4.561621    152.000    5.46781 6.8148e-02    16.7248    35.7903  1026.8540    5.46781 0.0000e+00
       4044 171.544187     -0.266    151.745    16.7574   4.562207    151.000    5.46705 7.3447e-02    16.7325    35.7893  1026.8458    5.46704 0.0000e+00
       4058 171.544227     -0.357    150.820    16.7579   4.562320    150.000    5.46696 7.1919e-02    16.7332    35.7901  1026.8422    5.46695 0.0000e+00
       4071 171.544267     -0.671    149.907    16.7601   4.562544    149.000    5.46671 7.0158e-02    16.7355    35.7906  1026.8380    5.46671 0.0000e+00
       4087 171.544312     -0.507    148.909    16.7631   4.562855    148.000    5.46638 6.9484e-02    16.7386    35.7910  1026.8332    5.46638 0.0000e+00
       4106 171.544368     -0.484    147.814    16.7616   4.562567    147.000    5.46656 6.9865e-02    16.7373    35.7903  1026.8282    5.46657 0.0000e+00
       4120 171.544407     -0.496    146.883    16.7643   4.562875    146.000    5.46625 6.9116e-02    16.7402    35.7909  1026.8240    5.46625 0.0000e+00
       4139 171.544462     -0.551    145.871    16.7671   4.563478    145.000    5.46585 7.0092e-02    16.7432    35.7941  1026.8213    5.46585 0.0000e+00
       4150 171.544495     -0.472    144.923    16.7913   4.566503    144.000    5.46313 6.9144e-02    16.7674    35.7995  1026.8155    5.46310 0.0000e+00
       4173 171.544559     -0.335    143.778    16.8197   4.569462    143.000    5.46006 7.0477e-02    16.7960    35.8006  1026.8045    5.46004 0.0000e+00
       4187 171.544601     -0.362    142.819    16.8259   4.570118    142.000    5.45938 6.9956e-02    16.8024    35.8012  1026.7993    5.45936 0.0000e+00
       4198 171.544633     -0.579    141.946    16.8304   4.570942    141.000    5.45878 7.0530e-02    16.8070    35.8048  1026.7971    5.45877 0.0000e+00
       4221 171.544698     -0.305    140.751    16.8604   4.574632    140.000    5.45540 7.3716e-02    16.8372    35.8109  1026.7894    5.45538 0.0000e+00
       4229 171.544722     -0.528    139.931    16.8725   4.575677    139.000    5.45417 7.3173e-02    16.8494    35.8096  1026.7819    5.45415 0.0000e+00
       4253 171.544791     -0.270    138.723    16.8733   4.575621    138.000    5.45409 7.1272e-02    16.8504    35.8089  1026.7758    5.45408 0.0000e+00
       4265 171.544827     -0.352    137.830    16.8782   4.576277    137.000    5.45351 7.1308e-02    16.8555    35.8106  1026.7720    5.45350 0.0000e+00
       4281 171.544872     -0.460    136.877    16.8846   4.577015    136.000    5.45280 7.1745e-02    16.8620    35.8118  1026.7672    5.45279 0.0000e+00
       4300 171.544927     -0.237    135.657    16.8872   4.577515    135.000    5.45244 7.3478e-02    16.8648    35.8143  1026.7632    5.45243 0.0000e+00
       4313 171.544966     -0.429    134.812    16.8988   4.578906    134.000    5.45114 7.3591e-02    16.8765    35.8165  1026.7584    5.45113 0.0000e+00
       4333 171.545022     -0.378    133.690    16.9100   4.580145    133.000    5.44991 7.3325e-02    16.8879    35.8178  1026.7517    5.44989 0.0000e+00
       4340 171.545042     -0.544    132.886    16.9225   4.581847    132.000    5.44845 7.1527e-02    16.9006    35.8219  1026.7483    5.44844 0.0000e+00
       4366 171.545120     -0.082    131.557    16.9446   4.583977    131.000    5.44613 7.1012e-02    16.9229    35.8214  1026.7368    5.44612 0.0000e+00
       4375 171.545144     -0.704    130.762    16.9423   4.583789    130.000    5.44635 7.2208e-02    16.9207    35.8221  1026.7344    5.44633 0.0000e+00
       4387 171.545179     -0.562    129.788    16.9559   4.585678    129.000    5.44475 7.1716e-02    16.9344    35.8270  1026.7306    5.44474 0.0000e+00
       4409 171.545244     -0.412    128.577    16.9764   4.587736    128.000    5.44260 7.2355e-02    16.9551    35.8273  1026.7206    5.44258 0.0000e+00
       4413 171.545254     -0.955    127.955    16.9760   4.587826    127.000    5.44259 7.2954e-02    16.9548    35.8286  1026.7189    5.44257 0.0000e+00
       4429 171.545301     -0.591    126.836    17.0024   4.594884    126.000    5.43855 7.5359e-02    16.9813    35.8673  1026.7374    5.43851 0.0000e+00
       4444 171.545346     -0.435    125.789    17.2362   4.625494    125.000    5.41215 7.8066e-02    17.2151    35.9268  1026.7217    5.41204 0.0000e+00
       4460 171.545391     -0.380    124.744    17.4521   4.648776    124.000    5.38938 8.3397e-02    17.4310    35.9378  1026.6729    5.38919 0.0000e+00
       4473 171.545429     -0.296    123.733    17.5512   4.660107    123.000    5.37876 8.6093e-02    17.5302    35.9485  1026.6524    5.37857 0.0000e+00
       4493 171.545486     -0.251    122.629    17.6482   4.669683    122.000    5.36881 9.0765e-02    17.6274    35.9458  1026.6216    5.36865 0.0000e+00
       4503 171.545515     -0.373    121.739    17.6575   4.670985    121.000    5.36770 9.2133e-02    17.6368    35.9492  1026.6180    5.36759 0.0000e+00
       4524 171.545576     -0.155    120.569    17.6773   4.673638    120.000    5.36541 9.4120e-02    17.6567    35.9551  1026.6125    5.36537 0.0000e+00
       4537 171.545614     -0.620    119.658    17.6797   4.675716    119.000    5.36467 9.1875e-02    17.6593    35.9712  1026.6202    5.36460 0.0000e+00
       4546 171.545640     -0.632    118.795    17.7703   4.686537    118.000    5.35492 9.2037e-02    17.7500    35.9847  1026.6044    5.35486 0.0000e+00
       4568 171.545703     -0.433    117.682    17.8251   4.691276    117.000    5.34954 1.0076e-01    17.8050    35.9775  1026.5804    5.34948 0.0000e+00
       4580 171.545739     -0.330    116.697    17.8477   4.694099    116.000    5.34707 1.0193e-01    17.8277    35.9823  1026.5741    5.34702 0.0000e+00
       4596 171.545785     -0.280    115.664    17.8807   4.698890    115.000    5.34333 1.0344e-01    17.8608    35.9947  1026.5709    5.34325 0.0000e+00
       4616 171.545843     -0.300    114.543    17.9646   4.710572    114.000    5.33389 1.0572e-01    17.9449    36.0214  1026.5656    5.33385 0.0000e+00
       4628 171.545877     -0.371    113.588    18.0208   4.716238    113.000    5.32822 1.0543e-01    18.0012    36.0208  1026.5469    5.32816 0.0000e+00
       4644 171.545924     -0.586    112.512    18.0411   4.718496    112.000    5.32609 1.0326e-01    18.0216    36.0227  1026.5385    5.32604 0.0000e+00
       4648 171.545935     -1.065    111.839    18.0560   4.720037    111.000    5.32454 1.0386e-01    18.0366    36.0230  1026.5321    5.32452 0.0000e+00
       4665 171.545983     -0.861    110.787    18.0665   4.720772    110.000    5.32359 1.0404e-01    18.0473    36.0205  1026.5229    5.32353 0.0000e+00
       4676 171.546017     -0.981    109.852    18.0839   4.724080    109.000    5.32135 1.0598e-01    18.0649    36.0338  1026.5246    5.32134 0.0000e+00
       4702 171.546091     -0.200    108.457    18.1213   4.727593    108.000    5.31767 1.0669e-01    18.1026    36.0314  1026.5073    5.31763 0.0000e+00
       4710 171.546114     -0.778    107.684    18.1433   4.731791    107.000    5.31488 1.0953e-01    18.1247    36.0482  1026.5113    5.31487 0.0000e+00
       4723 171.546152     -0.612    106.743    18.2026   4.738368    106.000    5.30879 1.1027e-01    18.1840    36.0526  1026.4957    5.30875 0.0000e+00
       4747 171.546220     -0.248    105.480    18.2634   4.744827    105.000    5.30261 1.1696e-01    18.2450    36.0548  1026.4765    5.30256 0.0000e+00
       4752 171.546236     -0.566    104.665    18.2912   4.750545    104.000    5.29903 1.1407e-01    18.2729    36.0794  1026.4848    5.29898 0.0000e+00
       4775 171.546301     -0.249    103.479    18.4269   4.764134    103.000    5.28555 1.0887e-01    18.4088    36.0762  1026.4428    5.28546 0.0000e+00
       4788 171.546341     -0.616    102.508    18.4369   4.765171    102.000    5.28451 1.1096e-01    18.4189    36.0766  1026.4364    5.28446 0.0000e+00
       4793 171.546353     -0.871    101.746    18.4714   4.770517    101.000    5.28060 1.1078e-01    18.4536    36.0920  1026.4361    5.28052 0.0000e+00
       4814 171.546414     -0.572    100.564    18.5785   4.781680    100.000    5.26989 9.8212e-02    18.5608    36.0933  1026.4046    5.26981 0.0000e+00
       4823 171.546440     -0.828     99.648    18.6312   4.788020     99.000    5.26441 9.6335e-02    18.6135    36.1012  1026.3933    5.26433 0.0000e+00
       4836 171.546479     -0.461     98.592    18.7138   4.797004     98.000    5.25610 9.4803e-02    18.6964    36.1052  1026.3706    5.25601 0.0000e+00
       4853 171.546527     -0.610     97.575    18.7484   4.801579     97.000    5.25239 9.5899e-02    18.7311    36.1139  1026.3640    5.25231 0.0000e+00
       4863 171.546557     -0.494     96.622    18.7962   4.806852     96.000    5.24757 9.7257e-02    18.7790    36.1171  1026.3500    5.24750 0.0000e+00
       4877 171.546597     -0.415     95.550    18.8165   4.808892     95.000    5.24555 1.0122e-01    18.7995    36.1169  1026.3400    5.24550 0.0000e+00
       4895 171.546649     -0.260     94.436    18.8325   4.810658     94.000    5.24393 9.8208e-02    18.8157    36.1183  1026.3321    5.24388 0.0000e+00
       4906 171.546682     -0.582     93.505    18.8513   4.818549     93.000    5.24053 9.8891e-02    18.8346    36.1687  1026.3617    5.24045 0.0000e+00
       4919 171.546720     -0.415     92.478    19.0392   4.841072     92.000    5.22135 1.0297e-01    19.0226    36.1944  1026.3284    5.22122 0.0000e+00
       4930 171.546751     -0.757     91.531    19.0983   4.852950     91.000    5.21412 1.0909e-01    19.0819    36.2428  1026.3460    5.21394 0.0000e+00
       4934 171.546762     -1.159     90.884    19.2407   4.875682     90.000    5.19815 1.1015e-01    19.2243    36.3091  1026.3568    5.19805 0.0000e+00
       4957 171.546830     -0.836     89.562    19.4655   4.894371     89.000    5.17769 1.1454e-01    19.4491    36.2697  1026.2623    5.17753 0.0000e+00
       4962 171.546844     -1.065     88.788    19.5196   4.906520     88.000    5.17081 1.1546e-01    19.5034    36.3240  1026.2861    5.17067 0.0000e+00
       5017 171.547003     -0.258     87.401    19.7237   4.925291     87.000    5.15182 1.2245e-01    19.7076    36.3031  1026.2103    5.15176 0.0000e+00
       5035 171.547055     -0.766     86.548    19.7326   4.928030     86.000    5.15053 1.2350e-01    19.7167    36.3184  1026.2159    5.15045 0.0000e+00
       5042 171.547075     -0.876     85.747    19.8054   4.938983     85.000    5.14273 1.2638e-01    19.7896    36.3462  1026.2144    5.14268 0.0000e+00
       5066 171.547143     -0.177     84.328    20.0036   4.962113     84.000    5.12340 1.2850e-01    19.9879    36.3661  1026.1706    5.12331 0.0000e+00
       5073 171.547165     -0.544     83.462    20.0228   4.963347     83.000    5.12177 1.2967e-01    20.0073    36.3599  1026.1570    5.12167 0.0000e+00
       5085 171.547199     -0.404     82.476    20.0211   4.962029     82.000    5.12218 1.2943e-01    20.0058    36.3509  1026.1463    5.12211 0.0000e+00
       5097 171.547235     -0.587     81.515    20.0174   4.961352     81.000    5.12257 1.3030e-01    20.0022    36.3489  1026.1416    5.12252 0.0000e+00
       5108 171.547266     -0.345     80.443    20.0223   4.962184     80.000    5.12199 1.3280e-01    20.0074    36.3518  1026.1379    5.12196 0.0000e+00
       5120 171.547301     -0.341     79.432    20.0246   4.962265     79.000    5.12180 1.3117e-01    20.0098    36.3509  1026.1322    5.12178 0.0000e+00
       5133 171.547339     -0.428     78.368    20.0257   4.962613     78.000    5.12163 1.3287e-01    20.0111    36.3532  1026.1290    5.12160 0.0000e+00
       5141 171.547361     -0.559     77.523    20.0345   4.963817     77.000    5.12071 1.3367e-01    20.0201    36.3559  1026.1250    5.12069 0.0000e+00
       5155 171.547402     -0.330     76.400    20.0468   4.965135     76.000    5.11954 1.3087e-01    20.0325    36.3565  1026.1173    5.11952 0.0000e+00
       5172 171.547450     -0.202     75.236    20.0473   4.965018     75.000    5.11951 1.2954e-01    20.0333    36.3555  1026.1113    5.11950 0.0000e+00
       5177 171.547466     -0.756     74.382    20.0431   4.964778     74.000    5.11985 1.3190e-01    20.0293    36.3575  1026.1102    5.11983 0.0000e+00
       5181 171.547477     -1.078     73.660    20.0518   4.965358     73.000    5.11906 1.3173e-01    20.0381    36.3550  1026.1028    5.11909 0.0000e+00
       5201 171.547535     -0.536     72.379    20.0364   4.961819     72.000    5.12103 1.3748e-01    20.0230    36.3396  1026.0897    5.12100 0.0000e+00
       5211 171.547563     -0.879     71.489    20.0298   4.961062     71.000    5.12162 1.4290e-01    20.0165    36.3395  1026.0874    5.12164 0.0000e+00
       5219 171.547588     -0.636     70.518    20.0130   4.956882     70.000    5.12381 1.4846e-01    19.9999    36.3199  1026.0728    5.12381 0.0000e+00
       5234 171.547630     -0.408     69.367    19.9976   4.954512     69.000    5.12542 1.7553e-01    19.9847    36.3140  1026.0674    5.12544 0.0000e+00
       5247 171.547668     -0.321     68.357    20.0400   4.958860     68.000    5.12145 2.0114e-01    20.0273    36.3137  1026.0514    5.12145 0.0000e+00
       5258 171.547700     -0.543     67.378    20.0530   4.959839     67.000    5.12032 2.1837e-01    20.0405    36.3108  1026.0415    5.12031 0.0000e+00
       5266 171.547722     -0.520     66.427    20.0604   4.960819     66.000    5.11957 2.3519e-01    20.0480    36.3129  1026.0370    5.11955 0.0000e+00
       5284 171.547775     -0.264     65.259    20.0786   4.961875     65.000    5.11805 2.8264e-01    20.0664    36.3063  1026.0220    5.11804 0.0000e+00
       5293 171.547802     -0.664     64.335    20.0834   4.961194     64.000    5.11789 3.2828e-01    20.0714    36.2969  1026.0095    5.11787 0.0000e+00
       5298 171.547816     -0.825     63.559    20.0907   4.961264     63.000    5.11736 3.5775e-01    20.0789    36.2914  1026.0000    5.11734 0.0000e+00
       5320 171.547880     -0.222     62.211    20.0957   4.961460     62.000    5.11695 4.3022e-01    20.0841    36.2892  1025.9912    5.11694 0.0000e+00
       5327 171.547899     -0.612     61.355    20.0953   4.961381     61.000    5.11698 4.5828e-01    20.0839    36.2892  1025.9875    5.11698 0.0000e+00
       5335 171.547922     -0.531     60.431    20.0955   4.961343     60.000    5.11697 4.6519e-01    20.0842    36.2891  1025.9834    5.11696 0.0000e+00
       5355 171.547980     -0.259     59.161    20.0983   4.961727     59.000    5.11667 4.5734e-01    20.0873    36.2903  1025.9779    5.11666 0.0000e+00
       5360 171.547994     -0.663     58.388    20.0958   4.960713     58.000    5.11707 4.6062e-01    20.0849    36.2844  1025.9708    5.11708 0.0000e+00
       5369 171.548020     -0.444     57.358    20.0790   4.957052     57.000    5.11912 4.8450e-01    20.0683    36.2692  1025.9592    5.11912 0.0000e+00
       5382 171.548058     -0.289     56.290    20.0721   4.955961     56.000    5.11984 5.2059e-01    20.0616    36.2666  1025.9544    5.11985 0.0000e+00
       5395 171.548095     -0.389     55.195    20.0715   4.955825     55.000    5.11991 5.3529e-01    20.0612    36.2663  1025.9496    5.11991 0.0000e+00
       5403 171.548120     -0.425     54.293    20.0715   4.955742     54.000    5.11991 5.2957e-01    20.0614    36.2659  1025.9454    5.11992 0.0000e+00
       5416 171.548157     -0.366     53.071    20.0714   4.955532     53.000    5.11997 5.4601e-01    20.0615    36.2648  1025.9391    5.11997 0.0000e+00
       5419 171.548166     -0.890     52.391    20.0701   4.955105     52.000    5.12015 5.4451e-01    20.0604    36.2626  1025.9349    5.12015 0.0000e+00
       5433 171.548207     -0.515     51.254    20.0654   4.954303     51.000    5.12066 5.4526e-01    20.0559    36.2605  1025.9295    5.12066 0.0000e+00
       5446 171.548243     -0.680     50.200    20.0633   4.954055     50.000    5.12085 5.4941e-01    20.0540    36.2606  1025.9256    5.12085 0.0000e+00
       5449 171.548253     -1.060     49.473    20.0640   4.954216     49.000    5.12075 5.4244e-01    20.0547    36.2617  1025.9231    5.12076 0.0000e+00
       5458 171.548278     -0.495     48.402    20.0693   4.954683     48.000    5.12027 5.5263e-01    20.0602    36.2614  1025.9168    5.12027 0.0000e+00
       5477 171.548334     -0.247     47.138    20.0687   4.954230     47.000    5.12041 6.1691e-01    20.0599    36.2586  1025.9093    5.12041 0.0000e+00
       5485 171.548356     -0.549     46.224    20.0645   4.953219     46.000    5.12094 6.2017e-01    20.0559    36.2542  1025.9031    5.12093 0.0000e+00
       5491 171.548375     -0.634     45.288    20.0613   4.952868     45.000    5.12123 6.1555e-01    20.0529    36.2544  1025.9000    5.12123 0.0000e+00
       5504 171.548412     -0.365     44.198    20.0692   4.953553     44.000    5.12051 6.2463e-01    20.0610    36.2537  1025.8926    5.12051 0.0000e+00
       5521 171.548460     -0.432     42.903    20.0717   4.953204     43.000    5.12041 6.3995e-01    20.0637    36.2491  1025.8829    5.12041 0.0000e+00
       5523 171.548466     -0.945     42.236    20.0682   4.949677     42.000    5.12144 6.2482e-01    20.0604    36.2233  1025.8612    5.12152 0.0000e+00
       5526 171.548474     -1.286     41.566    20.0324   4.933637     41.000    5.12781 6.1961e-01    20.0246    36.1224  1025.7908    5.12796 0.0000e+00
       5541 171.548519     -0.752     40.346    19.8094   4.895418     40.000    5.15289 6.7528e-01    19.8020    35.9994  1025.7507    5.15285 0.0000e+00
       5551 171.548548     -0.890     39.346    19.7391   4.887680     39.000    5.15958 7.0519e-01    19.7319    35.9961  1025.7624    5.15966 0.0000e+00
       5561 171.548576     -0.486     38.276    19.6900   4.882125     38.000    5.16435 7.3801e-01    19.6830    35.9928  1025.7681    5.16446 0.0000e+00
       5573 171.548612     -0.315     37.129    19.6754   4.880471     37.000    5.16581 7.4390e-01    19.6686    35.9921  1025.7664    5.16588 0.0000e+00
       5585 171.548645     -0.285     36.102    19.6804   4.881700     36.000    5.16516 6.9786e-01    19.6737    35.9984  1025.7654    5.16522 0.0000e+00
       5594 171.548673     -0.497     35.060    19.6923   4.883575     35.000    5.16387 7.1326e-01    19.6859    36.0040  1025.7620    5.16390 0.0000e+00
       5598 171.548682     -0.999     34.411    19.6921   4.882940     34.000    5.16404 7.0723e-01    19.6858    35.9992  1025.7556    5.16407 0.0000e+00
       5615 171.548732     -0.378     33.106    19.6805   4.881303     33.000    5.16526 7.2163e-01    19.6744    35.9961  1025.7506    5.16528 0.0000e+00
       5623 171.548755     -0.730     32.170    19.6805   4.881709     32.000    5.16514 7.3751e-01    19.6746    35.9998  1025.7494    5.16516 0.0000e+00
       5628 171.548769     -0.847     31.333    19.6822   4.881681     31.000    5.16502 7.2807e-01    19.6765    35.9984  1025.7442    5.16504 0.0000e+00
       5643 171.548814     -0.236     30.095    19.6775   4.880753     30.000    5.16558 7.3566e-01    19.6720    35.9952  1025.7376    5.16559 0.0000e+00
       5653 171.548843     -0.600     29.193    19.6773   4.881137     29.000    5.16549 7.8429e-01    19.6720    35.9989  1025.7365    5.16549 0.0000e+00
       5663 171.548870     -0.420     28.153    19.6767   4.880612     28.000    5.16565 7.6269e-01    19.6715    35.9955  1025.7295    5.16566 0.0000e+00
       5671 171.548895     -0.509     27.175    19.6713   4.879874     27.000    5.16619 7.3385e-01    19.6664    35.9943  1025.7258    5.16620 0.0000e+00
       5683 171.548929     -0.406     26.165    19.6707   4.879705     26.000    5.16627 7.3315e-01    19.6659    35.9938  1025.7212    5.16628 0.0000e+00
       5698 171.548971     -0.384     24.976    19.6693   4.879571     25.000    5.16640 7.9248e-01    19.6647    35.9944  1025.7168    5.16640 0.0000e+00
       5702 171.548984     -0.739     24.164    19.6716   4.879876     24.000    5.16615 7.8009e-01    19.6671    35.9952  1025.7133    5.16615 0.0000e+00
       5713 171.549017     -0.461     23.102    19.6718   4.879717     23.000    5.16617 7.5648e-01    19.6675    35.9941  1025.7077    5.16617 0.0000e+00
       5729 171.549062     -0.550     21.887    19.6733   4.879868     22.000    5.16601 7.1478e-01    19.6692    35.9945  1025.7023    5.16601 0.0000e+00
       5732 171.549071     -1.069     21.198    19.6728   4.879818     21.000    5.16604 7.1025e-01    19.6690    35.9948  1025.6996    5.16605 0.0000e+00
       5735 171.549081     -1.273     20.465    19.6726   4.879737     20.000    5.16607 7.0621e-01    19.6689    35.9946  1025.6963    5.16607 0.0000e+00
       5753 171.549131     -0.590     19.131    19.6683   4.879045     19.000    5.16653 7.1517e-01    19.6648    35.9930  1025.6905    5.16653 0.0000e+00
       5761 171.549154     -0.979     18.295    19.6673   4.878837     18.000    5.16665 7.2227e-01    19.6639    35.9925  1025.6867    5.16665 0.0000e+00
       5771 171.549185     -0.339     17.120    19.6676   4.878773     17.000    5.16663 7.4758e-01    19.6644    35.9922  1025.6812    5.16663 0.0000e+00
       5783 171.549220     -0.399     16.070    19.6661   4.878725     16.000    5.16673 8.0812e-01    19.6631    35.9934  1025.6780    5.16674 0.0000e+00
       5792 171.549245     -0.473     15.112    19.6684   4.878823     15.000    5.16654 7.9009e-01    19.6657    35.9926  1025.6725    5.16654 0.0000e+00
       5803 171.549277     -0.323     14.062    19.6661   4.878559     14.000    5.16675 7.6096e-01    19.6635    35.9928  1025.6688    5.16676 0.0000e+00
       5813 171.549306     -0.457     13.078    19.6644   4.878361     13.000    5.16691 7.6472e-01    19.6620    35.9930  1025.6651    5.16691 0.0000e+00
       5823 171.549334     -0.400     12.030    19.6620   4.877880     12.000    5.16719 7.9073e-01    19.6598    35.9915  1025.6600    5.16719 0.0000e+00
       5834 171.549366     -0.321     11.027    19.6582   4.877528     11.000    5.16753 7.3617e-01    19.6562    35.9922  1025.6571    5.16753 0.0000e+00
       5844 171.549395     -0.526      9.981    19.6568   4.877317     10.000    5.16766 7.3263e-01    19.6550    35.9920  1025.6528    5.16766 0.0000e+00
       5849 171.549409     -0.868      9.268    19.6555   4.877108      9.000    5.16779 7.2460e-01    19.6538    35.9916  1025.6497    5.16780 0.0000e+00
       5867 171.549462     -0.146      7.846    19.6507   4.876305      8.000    5.16833 7.4707e-01    19.6493    35.9897  1025.6433    5.16832 0.0000e+00
       5872 171.549477     -0.652      7.023    19.6467   4.876027      7.000    5.16866 7.6311e-01    19.6454    35.9911  1025.6418    5.16866 0.0000e+00
       5881 171.549501     -0.586      6.119    19.6500   4.876373      6.000    5.16833 7.3514e-01    19.6488    35.9915  1025.6373    5.16834 0.0000e+00
       5898 171.549553     -0.334      4.865    19.6537   4.876583      5.000    5.16801 7.0789e-01    19.6528    35.9905  1025.6300    5.16801 0.0000e+00
       5903 171.549565     -0.771      4.154    19.6537   4.876474      4.000    5.16803 6.9819e-01    19.6529    35.9899  1025.6265    5.16803 0.0000e+00
       5931 171.549647     -0.502      3.172    19.6546   4.876542      3.000    5.16793 6.8237e-01    19.6540    35.9900  1025.6221    5.16794 0.0000e+00
 -9.990e-29 -9.990e-29 -9.990e-29 -9.990e-29 -9.990e-29 -9.990e-29      2.000 -9.990e-29 -9.990e-29 -9.990e-29 -9.990e-29 -9.990e-29 -9.990e-29 -9.990e-29
       6477 171.551228     -0.071      0.903    19.6792   4.879464      1.000    5.16547 6.6685e-01    19.6791    35.9939  1025.6087    5.16546 0.0000e+00
