* Sea-Bird SBE 19plus V2 Data File:
* FileName = D:\ACEX_ctd\brutos\MCTV027.hex
* Software Version Seasave V 7.17
* Temperature SN = 6161
* Conductivity SN = 6161
* System UpLoad Time = Jun 19 2012 15:36:45
** H38 
** NHo Cruzeiro do Sul 
** 222 
** MCT V 
**   027
**   33 44.55S
**   051 24.92W
**   19/06/2012 15:40 Z
**   360
** 9P46375-0882 
**   1T Germano Filho
# nquan = 14
# nvalues = 241                         
# units = specified
# name 0 = scan: Scan Count
# name 1 = timeJ: Julian Days
# name 2 = dz/dtM: Descent Rate [m/s]
# name 3 = prdM: Pressure, Strain Gauge [db]
# name 4 = tv290C: Temperature [ITS-90, deg C]
# name 5 = c0S/m: Conductivity [S/m]
# name 6 = depSM: Depth [salt water, m]
# name 7 = oxsatML/L: Oxygen Saturation [ml/l]
# name 8 = flSP: Fluorescence, Seapoint
# name 9 = potemp090C: Potential Temperature [ITS-90, deg C]
# name 10 = sal00: Salinity [PSU]
# name 11 = density00: Density [density, Kg/m^3]
# name 12 = oxsatML/L: Oxygen Saturation [ml/l]
# name 13 = flag: flag
# span 0 =       1751,       3705       
# span 1 = 171.655585, 171.661238       
# span 2 =     -1.451,     -0.071       
# span 3 =      3.278,    244.429       
# span 4 =    14.6243,    20.1769       
# span 5 =   4.317334,   4.977834       
# span 6 =      3.000,    243.000       
# span 7 =    5.10735,    5.71430       
# span 8 = 5.3992e-02, 8.9497e-01       
# span 9 =    14.5878,    20.1662       
# span 10 =    35.4746,    36.3767      
# span 11 =  1025.6888,  1027.5030      
# span 12 =    5.10731,    5.71437      
# span 13 = 0.0000e+00, 0.0000e+00      
# interval = meters: 1                  
# start_time = Jun 19 2012 15:36:45
# bad_flag = -9.990e-29
# sensor 0 = Frequency 0  temperature, 6161, 21-Oct-08
# sensor 1 = Frequency 1  conductivity, 6161, 21-Oct-08, cpcor = -9.5700e-08
# sensor 2 = Pressure Number
# sensor 3 = Extrnl Volt  0  Fluorometer, Seapoint, primary
# sensor 4 = Extrnl Volt  2  altimeter
# datcnv_date = Jun 19 2012 18:10:25, 7.17
# datcnv_in = D:\ACEX_ctd\brutos\MCTV027.hex D:\ACEX_ctd\arqconfig\AC6161.con
# datcnv_skipover = 1
# filter_date = Jun 19 2012 18:10:35, 7.17
# filter_in = D:\ACEX_ctd\dat cnv\MCTV027.cnv
# filter_low_pass_tc_A = 1.000
# filter_low_pass_tc_B = 0.150
# filter_low_pass_A_vars = prdM flSP
# filter_low_pass_B_vars = c0S/m
# alignctd_date = Jun 19 2012 18:10:57, 7.17
# alignctd_in = D:\ACEX_ctd\filter\MCTV027.cnv
# alignctd_adv = c0S/m -0.010                                                                                                                                                                                                        
# wildedit_date = Jun 19 2012 18:11:28, 7.17
# wildedit_in = D:\ACEX_ctd\align\MCTV027.cnv
# wildedit_pass1_nstd = 2.0
# wildedit_pass2_nstd = 20.0
# wildedit_pass2_mindelta = 1.000e+002
# wildedit_npoint = 1000
# wildedit_vars = dz/dtM prdM tv290C c0S/m oxsatML/L flSP
# wildedit_excl_bad_scans = yes
# celltm_date = Jun 19 2012 18:11:45, 7.17
# celltm_in = D:\ACEX_ctd\wildedit\MCTV027.cnv
# celltm_alpha = 0.0300, 0.0000
# celltm_tau = 7.0000, 0.0000
# celltm_temp_sensor_use_for_cond = primary, 
# loopedit_date = Jun 19 2012 18:11:57, 7.17
# loopedit_in = D:\ACEX_ctd\celltm\MCTV027.cnv
# loopedit_minVelocity = 0.250                                                                                            
# loopedit_surfaceSoak: minDepth = 5.0, maxDepth = 20, useDeckPress = 1                                                   
# loopedit_excl_bad_scans = yes
# Derive_date = Jun 19 2012 18:12:14, 7.17
# Derive_in = D:\ACEX_ctd\loopedit\MCTV027.cnv C:\Documents and Settings\Coleta\Desktop\Nova pasta\6161.con
# binavg_date = Jun 19 2012 18:12:23, 7.17
# binavg_in = D:\ACEX_ctd\derive\MCTV027.cnv
# binavg_bintype = meters
# binavg_binsize = 1
# binavg_excl_bad_scans = yes
# binavg_skipover = 0
# binavg_surface_bin = no, min = 0.000, max = 0.000, value = 0.000
# split_date = Jun 19 2012 18:12:36, 7.17
# split_in = D:\ACEX_ctd\binavg\MCTV027.cnv
# split_excl_bad_scans = yes
# file_type = ascii
*END*
       1751 171.655585     -0.281    244.429    14.6243   4.317334    243.000    5.71430 5.4487e-02    14.5878    35.4746  1027.5030    5.71437 0.0000e+00
       1777 171.655660     -0.444    243.417    14.6363   4.319222    242.000    5.71275 5.5136e-02    14.5998    35.4815  1027.5012    5.71276 0.0000e+00
       1791 171.655699     -0.388    242.466    14.6936   4.325870    241.000    5.70586 5.4372e-02    14.6572    35.4907  1027.4914    5.70582 0.0000e+00
       1802 171.655733     -0.670    241.541    14.7458   4.332724    240.000    5.69931 5.5194e-02    14.7094    35.5065  1027.4879    5.69927 0.0000e+00
       1815 171.655771     -0.329    240.445    14.8360   4.342868    239.000    5.68861 5.5591e-02    14.7997    35.5176  1027.4715    5.68852 0.0000e+00
       1828 171.655808     -0.446    239.445    14.9250   4.355441    238.000    5.67728 5.5611e-02    14.8887    35.5520  1027.4738    5.67713 0.0000e+00
       1842 171.655849     -0.336    238.398    15.1473   4.380426    237.000    5.65122 5.4922e-02    15.1108    35.5782  1027.4393    5.65098 0.0000e+00
       1852 171.655877     -0.607    237.471    15.2518   4.391124    236.000    5.63927 5.5422e-02    15.2152    35.5809  1027.4137    5.63906 0.0000e+00
       1862 171.655906     -0.393    236.440    15.2928   4.394550    235.000    5.63482 5.3992e-02    15.2563    35.5752  1027.3954    5.63463 0.0000e+00
       1873 171.655936     -0.437    235.339    15.3083   4.396846    234.000    5.63283 5.5169e-02    15.2720    35.5825  1027.3926    5.63263 0.0000e+00
       1878 171.655952     -0.717    234.544    15.3696   4.405862    233.000    5.62496 5.5192e-02    15.3333    35.6089  1027.3956    5.62484 0.0000e+00
       1891 171.655988     -0.216    233.329    15.4548   4.412603    232.000    5.61601 5.5214e-02    15.4185    35.5933  1027.3588    5.61583 0.0000e+00
       1899 171.656012     -0.553    232.348    15.4620   4.414198    231.000    5.61486 5.6314e-02    15.4259    35.6016  1027.3592    5.61474 0.0000e+00
       1904 171.656027     -0.739    231.519    15.4758   4.415215    230.000    5.61341 5.6013e-02    15.4398    35.5986  1027.3501    5.61330 0.0000e+00
       1915 171.656060     -0.273    230.342    15.4886   4.416428    229.000    5.61196 5.5215e-02    15.4528    35.5985  1027.3418    5.61187 0.0000e+00
       1923 171.656083     -0.586    229.448    15.4938   4.417051    228.000    5.61132 5.4814e-02    15.4581    35.5998  1027.3377    5.61125 0.0000e+00
       1933 171.656112     -0.404    228.311    15.5093   4.418857    227.000    5.60947 5.4844e-02    15.4738    35.6025  1027.3312    5.60942 0.0000e+00
       1940 171.656131     -0.584    227.370    15.5149   4.419414    226.000    5.60883 5.5415e-02    15.4795    35.6029  1027.3261    5.60878 0.0000e+00
       1947 171.656151     -0.584    226.469    15.5224   4.420130    225.000    5.60799 5.5092e-02    15.4871    35.6029  1027.3204    5.60794 0.0000e+00
       1961 171.656191     -0.209    225.235    15.5291   4.420698    224.000    5.60724 5.5760e-02    15.4940    35.6025  1027.3131    5.60721 0.0000e+00
       1968 171.656212     -0.541    224.305    15.5307   4.420942    223.000    5.60702 5.6550e-02    15.4958    35.6036  1027.3095    5.60699 0.0000e+00
       1973 171.656228     -0.699    223.458    15.5330   4.421096    222.000    5.60677 5.6575e-02    15.4982    35.6032  1027.3050    5.60675 0.0000e+00
       1985 171.656260     -0.313    222.315    15.5356   4.421320    221.000    5.60647 5.7119e-02    15.5009    35.6034  1027.2995    5.60645 0.0000e+00
       1994 171.656288     -0.466    221.299    15.5374   4.421501    220.000    5.60626 5.7801e-02    15.5028    35.6039  1027.2949    5.60625 0.0000e+00
       2002 171.656310     -0.539    220.334    15.5419   4.422231    219.000    5.60565 5.7600e-02    15.5076    35.6067  1027.2918    5.60563 0.0000e+00
       2010 171.656333     -0.505    219.312    15.5498   4.422928    218.000    5.60479 5.7192e-02    15.5156    35.6062  1027.2852    5.60477 0.0000e+00
       2017 171.656354     -0.540    218.340    15.5555   4.424159    217.000    5.60395 5.8031e-02    15.5214    35.6127  1027.2845    5.60392 0.0000e+00
       2027 171.656384     -0.375    217.315    15.5983   4.429163    216.000    5.59895 5.7053e-02    15.5644    35.6195  1027.2754    5.59892 0.0000e+00
       2039 171.656419     -0.393    216.188    15.6252   4.432058    215.000    5.59590 5.8299e-02    15.5913    35.6217  1027.2660    5.59585 0.0000e+00
       2045 171.656435     -0.698    215.341    15.6420   4.434393    214.000    5.59383 5.7586e-02    15.6082    35.6280  1027.2632    5.59378 0.0000e+00
       2052 171.656457     -0.518    214.276    15.6699   4.437459    213.000    5.59063 5.9469e-02    15.6363    35.6307  1027.2542    5.59057 0.0000e+00
       2059 171.656477     -0.574    213.387    15.6870   4.438987    212.000    5.58878 5.9414e-02    15.6535    35.6294  1027.2454    5.58873 0.0000e+00
       2075 171.656523     -0.077    211.993    15.6983   4.439891    211.000    5.58758 6.0217e-02    15.6650    35.6280  1027.2355    5.58753 0.0000e+00
       2080 171.656536     -0.650    211.113    15.6977   4.439902    210.000    5.58759 5.9738e-02    15.6645    35.6289  1027.2325    5.58756 0.0000e+00
       2083 171.656545     -1.064    210.386    15.6991   4.439965    209.000    5.58745 5.8710e-02    15.6660    35.6286  1027.2287    5.58742 0.0000e+00
       2088 171.656559     -1.001    209.491    15.7055   4.441230    208.000    5.58653 5.8233e-02    15.6726    35.6345  1027.2278    5.58650 0.0000e+00
       2100 171.656595     -0.256    208.219    15.7304   4.443764    207.000    5.58376 5.9355e-02    15.6976    35.6353  1027.2171    5.58372 0.0000e+00
       2111 171.656626     -0.422    207.146    15.7454   4.445629    206.000    5.58196 6.1216e-02    15.7128    35.6389  1027.2117    5.58193 0.0000e+00
       2117 171.656644     -0.625    206.174    15.7560   4.446733    205.000    5.58077 6.2105e-02    15.7236    35.6397  1027.2056    5.58073 0.0000e+00
       2123 171.656660     -0.704    205.236    15.7633   4.447375    204.000    5.57998 6.1932e-02    15.7310    35.6392  1027.1994    5.57994 0.0000e+00
       2128 171.656675     -0.790    204.379    15.7670   4.447645    203.000    5.57958 5.9857e-02    15.7348    35.6387  1027.1944    5.57955 0.0000e+00
       2140 171.656709     -0.257    203.163    15.7687   4.447698    202.000    5.57941 5.9997e-02    15.7367    35.6381  1027.1882    5.57939 0.0000e+00
       2149 171.656736     -0.511    202.100    15.7701   4.448020    201.000    5.57918 6.2593e-02    15.7382    35.6402  1027.1848    5.57916 0.0000e+00
       2154 171.656752     -0.694    201.158    15.7801   4.450163    200.000    5.57773 6.1112e-02    15.7484    35.6507  1027.1864    5.57769 0.0000e+00
       2159 171.656765     -0.843    200.357    15.8172   4.455465    199.000    5.57313 6.0071e-02    15.7856    35.6652  1027.1855    5.57311 0.0000e+00
       2171 171.656800     -0.313    199.140    15.8704   4.459593    198.000    5.56766 5.8644e-02    15.8389    35.6548  1027.1598    5.56760 0.0000e+00
       2180 171.656825     -0.666    198.152    15.8738   4.459931    197.000    5.56726 5.8672e-02    15.8424    35.6552  1027.1549    5.56721 0.0000e+00
       2185 171.656840     -0.774    197.209    15.8763   4.459994    196.000    5.56703 5.8724e-02    15.8451    35.6538  1027.1492    5.56698 0.0000e+00
       2191 171.656858     -0.690    196.284    15.8763   4.459854    195.000    5.56705 5.8329e-02    15.8452    35.6530  1027.1444    5.56701 0.0000e+00
       2201 171.656888     -0.371    195.171    15.8755   4.459690    194.000    5.56713 5.9115e-02    15.8446    35.6526  1027.1394    5.56711 0.0000e+00
       2211 171.656916     -0.441    194.170    15.8758   4.459730    193.000    5.56707 6.1466e-02    15.8451    35.6531  1027.1353    5.56705 0.0000e+00
       2222 171.656948     -0.326    192.987    15.8766   4.459791    192.000    5.56697 6.0032e-02    15.8461    35.6534  1027.1301    5.56696 0.0000e+00
       2228 171.656966     -0.598    191.992    15.8770   4.459741    191.000    5.56694 5.9115e-02    15.8466    35.6530  1027.1254    5.56693 0.0000e+00
       2231 171.656974     -1.022    191.299    15.8762   4.459475    190.000    5.56708 5.8514e-02    15.8460    35.6516  1027.1214    5.56706 0.0000e+00
       2241 171.657001     -0.595    190.214    15.8729   4.459007    189.000    5.56746 5.7341e-02    15.8428    35.6508  1027.1168    5.56745 0.0000e+00
       2253 171.657036     -0.467    189.034    15.8707   4.458756    188.000    5.56769 5.8078e-02    15.8408    35.6510  1027.1123    5.56769 0.0000e+00
       2259 171.657055     -0.572    188.125    15.8710   4.458746    187.000    5.56766 5.7521e-02    15.8413    35.6510  1027.1082    5.56766 0.0000e+00
       2270 171.657087     -0.130    186.677    15.8713   4.458708    186.000    5.56764 5.6779e-02    15.8417    35.6510  1027.1018    5.56763 0.0000e+00
       2272 171.657093     -0.783    186.113    15.8715   4.458700    185.000    5.56761 5.6792e-02    15.8421    35.6510  1027.0992    5.56761 0.0000e+00
       2275 171.657101     -1.231    185.483    15.8715   4.458662    184.000    5.56761 5.5996e-02    15.8421    35.6509  1027.0964    5.56761 0.0000e+00
       2293 171.657153     -0.661    184.018    15.8725   4.459011    183.000    5.56743 5.7086e-02    15.8434    35.6537  1027.0918    5.56740 0.0000e+00
       2299 171.657169     -1.024    183.114    15.8847   4.461914    182.000    5.56556 5.8110e-02    15.8558    35.6691  1027.0968    5.56554 0.0000e+00
       2303 171.657181     -1.064    182.251    15.9246   4.467389    181.000    5.56071 5.8705e-02    15.8957    35.6825  1027.0941    5.56070 0.0000e+00
       2311 171.657204     -0.587    181.197    15.9894   4.474025    180.000    5.55360 5.8935e-02    15.9606    35.6839  1027.0755    5.55354 0.0000e+00
       2324 171.657243     -0.304    180.043    16.0472   4.479613    179.000    5.54735 5.9815e-02    16.0185    35.6824  1027.0558    5.54726 0.0000e+00
       2336 171.657278     -0.309    178.833    16.0649   4.482562    178.000    5.54504 6.0681e-02    16.0363    35.6933  1027.0547    5.54496 0.0000e+00
       2340 171.657290     -0.738    178.088    16.0988   4.487435    177.000    5.54090 5.9620e-02    16.0704    35.7065  1027.0537    5.54081 0.0000e+00
       2347 171.657309     -0.621    177.126    16.1665   4.495388    176.000    5.53318 5.8849e-02    16.1381    35.7169  1027.0416    5.53308 0.0000e+00
       2359 171.657343     -0.209    175.840    16.2455   4.503006    175.000    5.52472 5.9781e-02    16.2172    35.7143  1027.0154    5.52458 0.0000e+00
       2367 171.657366     -0.399    174.962    16.2565   4.504202    174.000    5.52346 5.9380e-02    16.2283    35.7154  1027.0098    5.52335 0.0000e+00
       2379 171.657401     -0.382    173.659    16.2683   4.505490    173.000    5.52212 6.1673e-02    16.2404    35.7168  1027.0024    5.52202 0.0000e+00
       2382 171.657409     -0.982    172.941    16.2737   4.506994    172.000    5.52124 6.1583e-02    16.2459    35.7256  1027.0047    5.52114 0.0000e+00
       2384 171.657416     -1.409    172.262    16.2890   4.509315    171.000    5.51928 6.1650e-02    16.2613    35.7328  1027.0037    5.51924 0.0000e+00
       2394 171.657446     -0.904    171.202    16.3343   4.514245    170.000    5.51429 6.1277e-02    16.3067    35.7363  1026.9910    5.51421 0.0000e+00
       2411 171.657493     -0.521    169.897    16.3685   4.517552    169.000    5.51062 6.2447e-02    16.3410    35.7355  1026.9766    5.51054 0.0000e+00
       2416 171.657509     -0.739    169.014    16.3953   4.520941    168.000    5.50749 6.1098e-02    16.3680    35.7419  1026.9713    5.50743 0.0000e+00
       2422 171.657526     -0.682    168.035    16.4072   4.521582    167.000    5.50638 6.1603e-02    16.3800    35.7373  1026.9607    5.50631 0.0000e+00
       2429 171.657546     -0.594    167.116    16.4154   4.522498    166.000    5.50544 6.2798e-02    16.3884    35.7384  1026.9555    5.50538 0.0000e+00
       2446 171.657595     -0.255    165.846    16.4262   4.523562    165.000    5.50425 6.2829e-02    16.3993    35.7387  1026.9477    5.50421 0.0000e+00
       2455 171.657622     -0.489    164.749    16.4300   4.524047    164.000    5.50379 6.3087e-02    16.4033    35.7400  1026.9429    5.50375 0.0000e+00
       2459 171.657634     -0.836    163.863    16.4335   4.524466    163.000    5.50337 6.2799e-02    16.4070    35.7409  1026.9389    5.50334 0.0000e+00
       2462 171.657643     -1.076    163.105    16.4365   4.524747    162.000    5.50305 6.2779e-02    16.4100    35.7411  1026.9350    5.50302 0.0000e+00
       2474 171.657676     -0.860    162.060    16.4400   4.525001    161.000    5.50268 6.1960e-02    16.4137    35.7406  1026.9292    5.50266 0.0000e+00
       2488 171.657718     -0.991    160.822    16.4416   4.525007    160.000    5.50253 6.1933e-02    16.4156    35.7397  1026.9227    5.50252 0.0000e+00
       2492 171.657728     -1.308    160.013    16.4412   4.525004    159.000    5.50255 6.1937e-02    16.4152    35.7404  1026.9197    5.50254 0.0000e+00
       2495 171.657736     -1.403    159.218    16.4418   4.525162    158.000    5.50244 6.2302e-02    16.4160    35.7416  1026.9170    5.50243 0.0000e+00
       2508 171.657774     -0.536    157.951    16.4481   4.525888    157.000    5.50173 6.2540e-02    16.4225    35.7428  1026.9109    5.50172 0.0000e+00
       2519 171.657807     -0.783    156.893    16.4521   4.526430    156.000    5.50125 6.3759e-02    16.4267    35.7445  1026.9066    5.50123 0.0000e+00
       2523 171.657817     -1.121    156.204    16.4659   4.531211    155.000    5.49878 6.3835e-02    16.4406    35.7747  1026.9234    5.49873 0.0000e+00
       2537 171.657858     -0.356    154.752    16.6311   4.552059    154.000    5.47983 6.5338e-02    16.6058    35.8116  1026.9063    5.47978 0.0000e+00
       2542 171.657874     -0.863    153.877    16.6925   4.559307    153.000    5.47297 6.6651e-02    16.6673    35.8209  1026.8949    5.47291 0.0000e+00
       2545 171.657882     -1.283    153.219    16.7326   4.561995    152.000    5.46918 6.5967e-02    16.7074    35.8090  1026.8733    5.46904 0.0000e+00
       2562 171.657931     -0.650    151.845    16.7706   4.564684    151.000    5.46542 6.6269e-02    16.7457    35.7992  1026.8507    5.46531 0.0000e+00
       2570 171.657954     -0.918    150.857    16.7724   4.564836    150.000    5.46521 6.6812e-02    16.7476    35.7994  1026.8460    5.46511 0.0000e+00
       2574 171.657965     -1.173    150.069    16.7779   4.565754    149.000    5.46446 6.6474e-02    16.7533    35.8028  1026.8438    5.46441 0.0000e+00
       2585 171.657998     -0.626    148.936    16.7906   4.566757    148.000    5.46319 6.6044e-02    16.7661    35.8008  1026.8343    5.46313 0.0000e+00
       2599 171.658037     -0.591    147.795    16.7972   4.567437    147.000    5.46245 6.6863e-02    16.7729    35.8014  1026.8281    5.46241 0.0000e+00
       2604 171.658052     -0.867    146.977    16.8017   4.567924    146.000    5.46195 6.7080e-02    16.7775    35.8019  1026.8239    5.46191 0.0000e+00
       2612 171.658076     -0.439    145.827    16.8104   4.568976    145.000    5.46096 6.8605e-02    16.7864    35.8039  1026.8182    5.46092 0.0000e+00
       2621 171.658102     -0.430    144.891    16.8181   4.569668    144.000    5.46015 6.6374e-02    16.7942    35.8035  1026.8120    5.46012 0.0000e+00
       2634 171.658140     -0.327    143.748    16.8212   4.569941    143.000    5.45981 6.6738e-02    16.7976    35.8035  1026.8062    5.45979 0.0000e+00
       2642 171.658164     -0.428    142.788    16.8293   4.571159    142.000    5.45882 6.5935e-02    16.8058    35.8074  1026.8030    5.45880 0.0000e+00
       2651 171.658190     -0.414    141.609    16.8431   4.572980    141.000    5.45723 6.7048e-02    16.8198    35.8115  1026.7978    5.45720 0.0000e+00
       2655 171.658199     -0.916    140.943    16.8507   4.573851    140.000    5.45637 6.6053e-02    16.8275    35.8126  1026.7939    5.45636 0.0000e+00
       2664 171.658225     -0.656    139.943    16.8624   4.575050    139.000    5.45513 6.6925e-02    16.8393    35.8131  1026.7870    5.45510 0.0000e+00
       2677 171.658264     -0.488    138.752    16.8765   4.576663    138.000    5.45356 7.0419e-02    16.8537    35.8151  1026.7799    5.45353 0.0000e+00
       2684 171.658284     -0.583    137.776    16.8834   4.577470    137.000    5.45278 7.1791e-02    16.8607    35.8164  1026.7750    5.45276 0.0000e+00
       2690 171.658301     -0.653    136.877    16.8869   4.577643    136.000    5.45245 7.1352e-02    16.8644    35.8152  1026.7693    5.45243 0.0000e+00
       2700 171.658332     -0.360    135.794    16.8883   4.577751    135.000    5.45229 6.9312e-02    16.8659    35.8153  1026.7643    5.45228 0.0000e+00
       2712 171.658365     -0.373    134.641    16.8912   4.578045    134.000    5.45197 7.1403e-02    16.8690    35.8158  1026.7588    5.45195 0.0000e+00
       2717 171.658379     -0.735    133.901    16.8925   4.578194    133.000    5.45181 6.9417e-02    16.8704    35.8162  1026.7557    5.45181 0.0000e+00
       2728 171.658413     -0.263    132.707    16.8993   4.579124    132.000    5.45101 7.0659e-02    16.8774    35.8188  1026.7507    5.45100 0.0000e+00
       2736 171.658436     -0.557    131.778    16.9085   4.580218    131.000    5.44998 7.1377e-02    16.8868    35.8205  1026.7458    5.44996 0.0000e+00
       2744 171.658459     -0.516    130.778    16.9177   4.581624    130.000    5.44886 7.2553e-02    16.8961    35.8251  1026.7427    5.44885 0.0000e+00
       2753 171.658485     -0.448    129.719    16.9452   4.585005    129.000    5.44578 7.3736e-02    16.9237    35.8307  1026.7357    5.44576 0.0000e+00
       2760 171.658505     -0.567    128.816    16.9591   4.586334    128.000    5.44433 7.6226e-02    16.9377    35.8303  1026.7281    5.44430 0.0000e+00
       2774 171.658543     -0.253    127.658    16.9799   4.588742    127.000    5.44204 7.1323e-02    16.9588    35.8332  1026.7202    5.44200 0.0000e+00
       2782 171.658568     -0.602    126.715    16.9950   4.591201    126.000    5.44016 7.2455e-02    16.9740    35.8417  1026.7190    5.44013 0.0000e+00
       2788 171.658586     -0.661    125.756    17.0171   4.593493    125.000    5.43781 7.4126e-02    16.9963    35.8425  1026.7100    5.43777 0.0000e+00
       2796 171.658607     -0.531    124.711    17.0274   4.594377    124.000    5.43677 7.5951e-02    17.0067    35.8415  1026.7021    5.43672 0.0000e+00
       2807 171.658639     -0.353    123.663    17.0939   4.603831    123.000    5.42903 7.4937e-02    17.0733    35.8653  1026.6998    5.42895 0.0000e+00
       2819 171.658675     -0.473    122.474    17.1939   4.618980    122.000    5.41711 7.7547e-02    17.1734    35.9091  1026.7039    5.41702 0.0000e+00
       2822 171.658682     -1.010    121.820    17.2530   4.626843    121.000    5.41046 7.7733e-02    17.2326    35.9252  1026.6990    5.41031 0.0000e+00
       2829 171.658703     -0.874    120.897    17.3702   4.640876    120.000    5.39766 7.9621e-02    17.3499    35.9434  1026.6804    5.39751 0.0000e+00
       2848 171.658758     -0.196    119.372    17.5122   4.653636    119.000    5.38344 8.7895e-02    17.4920    35.9288  1026.6277    5.38324 0.0000e+00
       2851 171.658767     -0.724    118.595    17.5219   4.656845    118.000    5.38172 8.5631e-02    17.5018    35.9483  1026.6369    5.38162 0.0000e+00
       2855 171.658778     -1.052    117.858    17.5475   4.658781    117.000    5.37929 8.4113e-02    17.5276    35.9426  1026.6230    5.37914 0.0000e+00
       2865 171.658809     -0.621    116.761    17.5739   4.661197    116.000    5.37662 8.4276e-02    17.5541    35.9405  1026.6101    5.37648 0.0000e+00
       2881 171.658853     -0.440    115.468    17.6005   4.665818    115.000    5.37331 8.8861e-02    17.5809    35.9575  1026.6109    5.37319 0.0000e+00
       2885 171.658866     -0.799    114.650    17.6539   4.675143    114.000    5.36670 8.9151e-02    17.6344    35.9910  1026.6198    5.36661 0.0000e+00
       2889 171.658878     -0.989    113.864    17.7325   4.684501    113.000    5.35828 8.9401e-02    17.7130    36.0026  1026.6058    5.35817 0.0000e+00
       2902 171.658914     -0.361    112.647    17.8705   4.698207    112.000    5.34432 9.2830e-02    17.8511    35.9990  1026.5636    5.34416 0.0000e+00
       2911 171.658942     -0.592    111.713    17.9009   4.700845    111.000    5.34132 9.2338e-02    17.8817    35.9952  1026.5490    5.34117 0.0000e+00
       2923 171.658977     -0.266    110.450    17.9246   4.702795    110.000    5.33898 9.2940e-02    17.9056    35.9915  1026.5347    5.33887 0.0000e+00
       2929 171.658992     -0.652    109.505    17.9214   4.701943    109.000    5.33943 9.4361e-02    17.9025    35.9874  1026.5283    5.33934 0.0000e+00
       2932 171.659001     -1.092    108.825    17.9204   4.701897    108.000    5.33949 9.2775e-02    17.9017    35.9881  1026.5260    5.33941 0.0000e+00
       2945 171.659038     -0.707    107.629    17.9318   4.703276    107.000    5.33824 9.1695e-02    17.9133    35.9904  1026.5197    5.33818 0.0000e+00
       2954 171.659065     -0.955    106.577    17.9400   4.704010    106.000    5.33740 9.2327e-02    17.9217    35.9898  1026.5126    5.33736 0.0000e+00
       2957 171.659075     -1.342    105.853    17.9437   4.705086    105.000    5.33686 9.2424e-02    17.9255    35.9961  1026.5133    5.33678 0.0000e+00
       2969 171.659108     -0.666    104.692    18.0649   4.723512    104.000    5.32295 9.8228e-02    18.0468    36.0476  1026.5174    5.32283 0.0000e+00
       2982 171.659147     -0.611    103.497    18.2073   4.739583    103.000    5.30813 1.0433e-01    18.1893    36.0600  1026.4860    5.30803 0.0000e+00
       2987 171.659162     -0.840    102.620    18.2652   4.746717    102.000    5.30205 1.0389e-01    18.2473    36.0704  1026.4755    5.30188 0.0000e+00
       2993 171.659177     -0.781    101.689    18.3580   4.758492    101.000    5.29209 1.0591e-01    18.3402    36.0895  1026.4626    5.29196 0.0000e+00
       3004 171.659210     -0.450    100.623    18.4203   4.762287    100.000    5.28657 1.0385e-01    18.4027    36.0674  1026.4252    5.28641 0.0000e+00
       3022 171.659263     -0.355     99.343    18.4253   4.761881     99.000    5.28623 1.0913e-01    18.4078    36.0601  1026.4128    5.28614 0.0000e+00
       3025 171.659272     -0.811     98.609    18.4304   4.764557     98.000    5.28517 1.0657e-01    18.4131    36.0786  1026.4225    5.28505 0.0000e+00
       3031 171.659289     -0.703     97.601    18.5796   4.787516     97.000    5.26830 1.0309e-01    18.5624    36.1429  1026.4293    5.26816 0.0000e+00
       3038 171.659309     -0.567     96.607    18.7785   4.808319     96.000    5.24859 9.9321e-02    18.7613    36.1450  1026.3758    5.24837 0.0000e+00
       3055 171.659357     -0.168     95.334    19.0180   4.833869     95.000    5.22495 9.1305e-02    19.0009    36.1513  1026.3134    5.22463 0.0000e+00
       3061 171.659375     -0.765     94.482    19.0561   4.839050     94.000    5.22080 9.5184e-02    19.0391    36.1619  1026.3080    5.22057 0.0000e+00
       3065 171.659385     -1.132     93.718    19.0725   4.841832     93.000    5.21893 9.5828e-02    19.0556    36.1712  1026.3075    5.21868 0.0000e+00
       3072 171.659406     -0.630     92.584    19.1428   4.851751     92.000    5.21134 1.0093e-01    19.1261    36.1935  1026.3014    5.21113 0.0000e+00
       3080 171.659430     -0.474     91.467    19.2401   4.865983     91.000    5.20080 1.0740e-01    19.2235    36.2284  1026.2978    5.20060 0.0000e+00
       3086 171.659447     -0.652     90.599    19.2938   4.871104     90.000    5.19573 1.0848e-01    19.2774    36.2247  1026.2772    5.19550 0.0000e+00
       3096 171.659475     -0.383     89.463    19.3651   4.881501     89.000    5.18800 1.1720e-01    19.3488    36.2499  1026.2729    5.18783 0.0000e+00
       3103 171.659498     -0.516     88.435    19.4171   4.886960     88.000    5.18299 1.2199e-01    19.4010    36.2505  1026.2553    5.18279 0.0000e+00
       3110 171.659516     -0.624     87.436    19.4469   4.892110     87.000    5.17955 1.2152e-01    19.4309    36.2679  1026.2564    5.17938 0.0000e+00
       3114 171.659529     -0.793     86.587    19.4982   4.900341     86.000    5.17390 1.2021e-01    19.4824    36.2921  1026.2577    5.17370 0.0000e+00
       3122 171.659551     -0.556     85.557    19.6252   4.916748     85.000    5.16089 1.2224e-01    19.6095    36.3184  1026.2400    5.16072 0.0000e+00
       3132 171.659582     -0.371     84.376    19.7375   4.929109     84.000    5.15004 1.2712e-01    19.7220    36.3239  1026.2093    5.14982 0.0000e+00
       3139 171.659599     -0.618     83.440    19.7613   4.931903     83.000    5.14766 1.2637e-01    19.7460    36.3267  1026.2011    5.14747 0.0000e+00
       3144 171.659616     -0.708     82.514    19.8120   4.939668     82.000    5.14219 1.2604e-01    19.7967    36.3474  1026.1994    5.14202 0.0000e+00
       3151 171.659636     -0.577     81.447    19.8712   4.946209     81.000    5.13648 1.2764e-01    19.8561    36.3505  1026.1815    5.13630 0.0000e+00
       3158 171.659655     -0.593     80.455    19.9215   4.952884     80.000    5.13134 1.2996e-01    19.9066    36.3624  1026.1729    5.13117 0.0000e+00
       3167 171.659683     -0.379     79.370    19.9666   4.956903     79.000    5.12723 1.2616e-01    19.9518    36.3570  1026.1520    5.12707 0.0000e+00
       3180 171.659718     -0.315     77.969    19.9863   4.959195     78.000    5.12527 1.3121e-01    19.9718    36.3593  1026.1424    5.12514 0.0000e+00
       3181 171.659722     -1.007     77.370    19.9913   4.960135     77.000    5.12467 1.3226e-01    19.9769    36.3630  1026.1413    5.12456 0.0000e+00
       3183 171.659729     -1.451     76.680    20.0006   4.961270     76.000    5.12371 1.3319e-01    19.9864    36.3645  1026.1369    5.12363 0.0000e+00
       3190 171.659748     -0.935     75.619    20.0308   4.964971     75.000    5.12074 1.3765e-01    20.0167    36.3692  1026.1279    5.12064 0.0000e+00
       3201 171.659780     -0.392     74.310    20.0613   4.968228     74.000    5.11783 1.4741e-01    20.0475    36.3702  1026.1147    5.11773 0.0000e+00
       3205 171.659793     -0.852     73.610    20.0734   4.970262     73.000    5.11647 1.4623e-01    20.0596    36.3767  1026.1135    5.11640 0.0000e+00
       3219 171.659833     -0.071     72.050    20.1050   4.973257     72.000    5.11356 1.5453e-01    20.0916    36.3746  1026.0966    5.11349 0.0000e+00
       3222 171.659842     -0.774     71.330    20.1004   4.972501     71.000    5.11403 1.6228e-01    20.0871    36.3726  1026.0931    5.11398 0.0000e+00
       3225 171.659851     -1.189     70.619    20.0987   4.971890     70.000    5.11429 1.6837e-01    20.0856    36.3693  1026.0880    5.11424 0.0000e+00
       3234 171.659875     -0.582     69.485    20.0941   4.970979     69.000    5.11480 1.6992e-01    20.0811    36.3662  1026.0820    5.11477 0.0000e+00
       3245 171.659908     -0.381     68.257    20.0883   4.969809     68.000    5.11546 1.7352e-01    20.0755    36.3621  1026.0750    5.11544 0.0000e+00
       3251 171.659925     -0.656     67.306    20.0842   4.969116     67.000    5.11589 1.7036e-01    20.0717    36.3602  1026.0706    5.11588 0.0000e+00
       3256 171.659939     -0.735     66.367    20.0828   4.968940     66.000    5.11602 1.6603e-01    20.0704    36.3604  1026.0670    5.11601 0.0000e+00
       3260 171.659952     -0.923     65.599    20.0850   4.969208     65.000    5.11579 1.5918e-01    20.0728    36.3609  1026.0635    5.11578 0.0000e+00
       3274 171.659990     -0.241     64.126    20.0925   4.969837     64.000    5.11511 1.5044e-01    20.0805    36.3602  1026.0544    5.11510 0.0000e+00
       3279 171.660005     -0.781     63.274    20.0953   4.970148     63.000    5.11483 1.6024e-01    20.0835    36.3606  1026.0503    5.11482 0.0000e+00
       3281 171.660012     -1.274     62.613    20.0977   4.970286     62.000    5.11463 1.5731e-01    20.0860    36.3600  1026.0463    5.11462 0.0000e+00
       3291 171.660040     -0.537     61.383    20.1100   4.971865     61.000    5.11339 1.5387e-01    20.0986    36.3627  1026.0398    5.11337 0.0000e+00
       3302 171.660072     -0.487     60.125    20.1176   4.972664     60.000    5.11267 1.7051e-01    20.1064    36.3632  1026.0326    5.11264 0.0000e+00
       3305 171.660080     -0.968     59.396    20.1239   4.974480     59.000    5.11178 1.7379e-01    20.1128    36.3730  1026.0352    5.11176 0.0000e+00
       3309 171.660094     -0.942     58.538    20.1534   4.977693     58.000    5.10896 1.8125e-01    20.1425    36.3742  1026.0245    5.10895 0.0000e+00
       3321 171.660127     -0.177     57.175    20.1769   4.977834     57.000    5.10735 2.0362e-01    20.1662    36.3556  1025.9981    5.10731 0.0000e+00
       3327 171.660144     -0.663     56.363    20.1697   4.976839     56.000    5.10806 2.0260e-01    20.1591    36.3540  1025.9953    5.10803 0.0000e+00
       3334 171.660166     -0.538     55.266    20.1551   4.974253     55.000    5.10966 1.9589e-01    20.1448    36.3456  1025.9880    5.10965 0.0000e+00
       3341 171.660184     -0.625     54.326    20.1483   4.971933     54.000    5.11068 2.0341e-01    20.1381    36.3328  1025.9760    5.11068 0.0000e+00
       3348 171.660205     -0.560     53.312    20.1324   4.968713     53.000    5.11254 2.1962e-01    20.1224    36.3205  1025.9664    5.11255 0.0000e+00
       3357 171.660232     -0.359     52.090    20.1219   4.966236     52.000    5.11383 2.4821e-01    20.1122    36.3096  1025.9556    5.11386 0.0000e+00
       3361 171.660242     -0.835     51.402    20.1094   4.962803     51.000    5.11554 2.5672e-01    20.0998    36.2925  1025.9429    5.11556 0.0000e+00
       3369 171.660266     -0.522     50.334    20.0731   4.956466     50.000    5.11956 3.1375e-01    20.0637    36.2720  1025.9323    5.11959 0.0000e+00
       3379 171.660295     -0.456     49.189    20.0437   4.951344     49.000    5.12283 3.8324e-01    20.0345    36.2556  1025.9227    5.12286 0.0000e+00
       3385 171.660313     -0.674     48.262    20.0333   4.949462     48.000    5.12399 4.2523e-01    20.0243    36.2494  1025.9167    5.12403 0.0000e+00
       3391 171.660331     -0.625     47.213    20.0256   4.948294     47.000    5.12477 4.7780e-01    20.0168    36.2469  1025.9122    5.12483 0.0000e+00
       3396 171.660345     -0.759     46.330    20.0158   4.943396     46.000    5.12665 4.8963e-01    20.0072    36.2153  1025.8868    5.12671 0.0000e+00
       3405 171.660370     -0.501     45.310    19.9176   4.926348     45.000    5.13764 5.6401e-01    19.9092    36.1598  1025.8661    5.13770 0.0000e+00
       3417 171.660404     -0.338     44.063    19.8182   4.912039     44.000    5.14798 7.0586e-01    19.8101    36.1278  1025.8626    5.14811 0.0000e+00
       3422 171.660418     -0.734     43.214    19.7928   4.907580     43.000    5.15087 7.2560e-01    19.7849    36.1131  1025.8544    5.15097 0.0000e+00
       3427 171.660433     -0.802     42.271    19.7759   4.905576     42.000    5.15253 7.6065e-01    19.7682    36.1114  1025.8535    5.15263 0.0000e+00
       3432 171.660449     -0.745     41.325    19.7702   4.905106     41.000    5.15304 7.9218e-01    19.7626    36.1128  1025.8519    5.15314 0.0000e+00
       3440 171.660472     -0.517     40.293    19.7676   4.904951     40.000    5.15327 8.2164e-01    19.7602    36.1142  1025.8492    5.15335 0.0000e+00
       3452 171.660505     -0.330     39.100    19.7664   4.905024     39.000    5.15335 8.6007e-01    19.7592    36.1163  1025.8459    5.15339 0.0000e+00
       3458 171.660525     -0.554     38.073    19.7668   4.904964     38.000    5.15333 8.4490e-01    19.7598    36.1157  1025.8409    5.15336 0.0000e+00
       3462 171.660536     -0.888     37.311    19.7662   4.904639     37.000    5.15345 7.9088e-01    19.7593    36.1139  1025.8363    5.15348 0.0000e+00
       3470 171.660559     -0.550     36.243    19.7676   4.904787     36.000    5.15331 7.4404e-01    19.7610    36.1143  1025.8316    5.15334 0.0000e+00
       3481 171.660590     -0.341     34.944    19.7685   4.904705     35.000    5.15327 7.8196e-01    19.7621    36.1133  1025.8249    5.15328 0.0000e+00
       3485 171.660601     -0.871     34.214    19.7671   4.904457     34.000    5.15342 7.7991e-01    19.7608    36.1127  1025.8217    5.15343 0.0000e+00
       3489 171.660613     -0.973     33.362    19.7656   4.904333     33.000    5.15354 7.6208e-01    19.7595    36.1133  1025.8188    5.15356 0.0000e+00
       3498 171.660639     -0.463     32.229    19.7656   4.904364     32.000    5.15352 8.3977e-01    19.7597    36.1140  1025.8144    5.15354 0.0000e+00
       3509 171.660672     -0.339     31.037    19.7679   4.904513     31.000    5.15332 8.9230e-01    19.7622    36.1137  1025.8084    5.15333 0.0000e+00
       3516 171.660693     -0.525     29.920    19.7675   4.904368     30.000    5.15338 8.4012e-01    19.7620    36.1133  1025.8032    5.15338 0.0000e+00
       3519 171.660701     -0.937     29.185    19.7671   4.904333     29.000    5.15340 8.1318e-01    19.7617    36.1136  1025.8004    5.15341 0.0000e+00
       3523 171.660712     -1.153     28.395    19.7670   4.904220     28.000    5.15343 7.7785e-01    19.7618    36.1131  1025.7966    5.15343 0.0000e+00
       3533 171.660741     -0.394     27.168    19.7659   4.904100     27.000    5.15353 7.5744e-01    19.7609    36.1135  1025.7918    5.15353 0.0000e+00
       3544 171.660774     -0.423     25.903    19.7667   4.904137     26.000    5.15345 8.0091e-01    19.7619    36.1135  1025.7861    5.15344 0.0000e+00
       3547 171.660782     -0.863     25.181    19.7670   4.904062     25.000    5.15343 7.8518e-01    19.7624    36.1129  1025.7824    5.15344 0.0000e+00
       3553 171.660797     -0.864     24.285    19.7663   4.903922     24.000    5.15351 7.6429e-01    19.7619    36.1127  1025.7785    5.15351 0.0000e+00
       3563 171.660828     -0.159     22.890    19.7654   4.903876     23.000    5.15358 8.0755e-01    19.7611    36.1137  1025.7735    5.15357 0.0000e+00
       3567 171.660839     -0.721     22.163    19.7668   4.903906     22.000    5.15345 7.9913e-01    19.7628    36.1129  1025.7693    5.15346 0.0000e+00
       3574 171.660858     -0.686     21.165    19.7692   4.904002     21.000    5.15326 8.1890e-01    19.7653    36.1120  1025.7636    5.15325 0.0000e+00
       3581 171.660880     -0.535     20.119    19.7708   4.904034     20.000    5.15313 8.4657e-01    19.7671    36.1113  1025.7581    5.15313 0.0000e+00
       3589 171.660901     -0.530     19.081    19.7699   4.903840     19.000    5.15323 8.7449e-01    19.7664    36.1108  1025.7535    5.15322 0.0000e+00
       3596 171.660924     -0.497     17.949    19.7692   4.903755     18.000    5.15328 8.9497e-01    19.7659    36.1112  1025.7490    5.15328 0.0000e+00
       3601 171.660937     -0.780     17.080    19.7687   4.903608     17.000    5.15335 8.6637e-01    19.7656    36.1107  1025.7449    5.15334 0.0000e+00
       3605 171.660948     -0.952     16.282    19.7677   4.903516     16.000    5.15342 8.2925e-01    19.7647    36.1111  1025.7420    5.15342 0.0000e+00
       3616 171.660982     -0.271     14.991    19.7680   4.903465     15.000    5.15341 7.7776e-01    19.7652    36.1109  1025.7362    5.15341 0.0000e+00
       3625 171.661008     -0.550     13.825    19.7680   4.903425     14.000    5.15341 8.5206e-01    19.7654    36.1110  1025.7312    5.15340 0.0000e+00
       3628 171.661016     -1.016     13.127    19.7686   4.903412     13.000    5.15336 8.2146e-01    19.7661    36.1107  1025.7277    5.15336 0.0000e+00
       3631 171.661025     -1.242     12.376    19.7687   4.903453     12.000    5.15333 7.8447e-01    19.7664    36.1112  1025.7248    5.15333 0.0000e+00
       3643 171.661058     -0.218     10.940    19.7724   4.903732     11.000    5.15299 8.0625e-01    19.7704    36.1108  1025.7173    5.15298 0.0000e+00
       3649 171.661076     -0.666     10.005    19.7720   4.903599     10.000    5.15304 8.1979e-01    19.7701    36.1104  1025.7130    5.15304 0.0000e+00
       3653 171.661089     -0.910      9.196    19.7701   4.903213      9.000    5.15325 7.8625e-01    19.7684    36.1091  1025.7090    5.15326 0.0000e+00
       3662 171.661114     -0.455      7.987    19.7643   4.902854      8.000    5.15373 7.9716e-01    19.7628    36.1116  1025.7071    5.15373 0.0000e+00
       3669 171.661134     -0.530      6.943    19.7681   4.902804      7.000    5.15348 8.1975e-01    19.7668    36.1083  1025.6991    5.15347 0.0000e+00
       3673 171.661145     -0.914      6.280    19.7619   4.902291      6.000    5.15402 7.9114e-01    19.7608    36.1097  1025.6988    5.15402 0.0000e+00
       3686 171.661184     -0.260      4.809    19.7561   4.902044      5.000    5.15447 8.0719e-01    19.7552    36.1132  1025.6966    5.15447 0.0000e+00
       3690 171.661195     -0.876      4.095    19.7578   4.902511      4.000    5.15422 7.8549e-01    19.7571    36.1158  1025.6951    5.15423 0.0000e+00
       3705 171.661238     -0.847      3.278    19.7643   4.902995      3.000    5.15364 7.7743e-01    19.7637    36.1145  1025.6888    5.15365 0.0000e+00
