* Sea-Bird SBE 9 Data File:
* FileName = D:\ACEX\brutos\MCTV010.hex
* Software Version Seasave V 7.17
* Temperature SN = 4821
* Conductivity SN = 3367
* Number of Bytes Per Scan = 21
* Number of Voltage Words = 3
* Number of Scans Averaged by the Deck Unit = 1
* System UpLoad Time = Jun 14 2012 10:52:44
** H38 
** NHo Cruzeiro do Sul 
** 222 
** MCTV ACEx 
**   010
**   27 00.43 S
**   046 37.69 W
**   14/06/2012 13:51Z
**   309
** 9P46375-0882 
**   1T Oliveira Santos
# nquan = 16
# nvalues = 273                         
# units = specified
# name 0 = scan: Scan Count
# name 1 = timeJ: Julian Days
# name 2 = dz/dtM: Descent Rate [m/s]
# name 3 = prDM: Pressure, Digiquartz [db]
# name 4 = t090C: Temperature [ITS-90, deg C]
# name 5 = c0S/m: Conductivity [S/m]
# name 6 = sbeox0V: Oxygen Voltage, SBE 43
# name 7 = depSM: Depth [salt water, m]
# name 8 = flSP: Fluorescence, Seapoint
# name 9 = potemp090C: Potential Temperature [ITS-90, deg C]
# name 10 = sal00: Salinity [PSU]
# name 11 = density00: Density [density, Kg/m^3]
# name 12 = sigma-é00: Density [sigma-theta, Kg/m^3]
# name 13 = sbeox0ML/L: Oxygen, SBE 43 [ml/l], WS = 2
# name 14 = nbin: number of scans per bin
# name 15 = flag: flag
# span 0 =      21848,      44100       
# span 1 = 166.463823, 166.474554       
# span 2 =     -1.149,     -0.155       
# span 3 =      1.012,    275.021       
# span 4 =    13.6763,    23.0653       
# span 5 =   4.253399,   5.396145       
# span 6 =     2.4831,     3.4850       
# span 7 =      1.000,    273.000       
# span 8 = 3.9741e-02, 4.6169e-01       
# span 9 =    13.6371,    23.0533       
# span 10 =    35.7428,    37.2280      
# span 11 =  1025.4399,  1028.0421      
# span 12 =    25.4356,    26.8377      
# span 13 =    3.46342,    4.46392      
# span 14 =         12,         69      
# span 15 = 0.0000e+00, 0.0000e+00      
# interval = meters: 1                  
# start_time = Jun 14 2012 10:52:44
# bad_flag = -9.990e-29
# sensor 0 = Frequency  0  temperature, 4821, 05-sep-07
# sensor 1 = Frequency  1  conductivity, 3367, 05-mar-08, cpcor = -9.5700e-08
# sensor 2 = Frequency  2  pressure, 106018, 28-sep-07
# sensor 3 = Extrnl Volt  0  Oxygen, SBE, primary, 0802, 30-nov-07
# sensor 4 = Extrnl Volt  2  Fluorometer, Seapoint, primary
# sensor 5 = Extrnl Volt  4  altimeter
# datcnv_date = Jun 14 2012 11:38:33, 7.17
# datcnv_in = D:\ACEX\brutos\MCTV010.hex D:\ACEX\arqconfig\AC0882mod2.con
# datcnv_skipover = 2178
# filter_date = Jun 14 2012 11:38:47, 7.17
# filter_in = D:\ACEX\dat cnv\MCTV010.cnv
# filter_low_pass_tc_A = 0.150
# filter_low_pass_tc_B = 0.000
# filter_low_pass_A_vars = prDM
# filter_low_pass_B_vars = c0S/m
# alignctd_date = Jun 14 2012 11:39:11, 7.17
# alignctd_in = D:\ACEX\filter\MCTV010.cnv
# alignctd_adv = c0S/m 0.073, sbeox0V 2.000                                                                                                                                                                                          
# wildedit_date = Jun 14 2012 11:39:31, 7.17
# wildedit_in = D:\ACEX\align\MCTV010.cnv
# wildedit_pass1_nstd = 2.0
# wildedit_pass2_nstd = 20.0
# wildedit_pass2_mindelta = 1.000e+002
# wildedit_npoint = 1000
# wildedit_vars = dz/dtM prDM t090C c0S/m sbeox0V flSP
# wildedit_excl_bad_scans = yes
# celltm_date = Jun 14 2012 11:39:50, 7.17
# celltm_in = D:\ACEX\wildedit\MCTV010.cnv
# celltm_alpha = 0.0300, 0.0000
# celltm_tau = 7.0000, 0.0000
# celltm_temp_sensor_use_for_cond = primary, 
# loopedit_date = Jun 14 2012 11:40:07, 7.17
# loopedit_in = D:\ACEX\celltm\MCTV010.cnv
# loopedit_minVelocity = 0.250                                                                                            
# loopedit_surfaceSoak: minDepth = 5.0, maxDepth = 20, useDeckPress = 1                                                   
# loopedit_excl_bad_scans = yes
# Derive_date = Jun 14 2012 11:40:34, 7.17
# Derive_in = D:\ACEX\loopedit\MCTV010.cnv D:\ACEX\arqconfig\AC0882.con
# derive_time_window_docdt = seconds: 2
# binavg_date = Jun 14 2012 11:40:57, 7.17
# binavg_in = D:\ACEX\derive\MCTV010.cnv
# binavg_bintype = meters
# binavg_binsize = 1
# binavg_excl_bad_scans = yes
# binavg_skipover = 0
# binavg_surface_bin = no, min = 0.000, max = 0.000, value = 0.000
# split_date = Jun 14 2012 11:41:18, 7.17
# split_in = D:\ACEX\binavg\MCTV010.cnv
# split_excl_bad_scans = yes
# file_type = ascii
*END*
      21848 166.463823     -0.274    275.021    13.7764   4.264850     2.7199    273.000 5.8884e-02    13.7367    35.7562  1028.0401    26.8273    3.97174         39 0.0000e+00
      24000 166.464861     -0.333    273.972    13.7421   4.260866     2.7396    272.000 5.7314e-02    13.7026    35.7512  1028.0389    26.8305    4.01274         36 0.0000e+00
      25861 166.465758     -0.276    272.991    13.6763   4.253399     2.7824    271.000 5.2668e-02    13.6371    35.7428  1028.0421    26.8377    4.10208         24 0.0000e+00
      25849 166.465752     -0.272    271.954    13.6861   4.254470     2.7793    270.000 5.5942e-02    13.6470    35.7442  1028.0365    26.8367    4.09449         33 0.0000e+00
      25924 166.465788     -0.309    270.953    13.6895   4.254856     2.7792    269.000 5.3610e-02    13.6506    35.7450  1028.0320    26.8366    4.09348         40 0.0000e+00
      26001 166.465825     -0.331    269.950    13.7094   4.257043     2.7723    268.000 5.4778e-02    13.6706    35.7475  1028.0253    26.8343    4.07761         24 0.0000e+00
      26107 166.465877     -0.317    268.925    13.7369   4.260146     2.7534    267.000 5.7431e-02    13.6982    35.7514  1028.0178    26.8316    4.03769         38 0.0000e+00
      26140 166.465893     -0.645    267.926    13.7538   4.262135     2.7478    266.000 5.6979e-02    13.7152    35.7548  1028.0124    26.8306    4.02463         23 0.0000e+00
      26172 166.465908     -0.707    267.037    13.7613   4.262838     2.7401    265.000 5.9025e-02    13.7228    35.7547  1028.0068    26.8290    4.00831         29 0.0000e+00
      26308 166.465974     -0.257    265.931    13.7804   4.264965     2.7239    264.000 5.9442e-02    13.7421    35.7574  1027.9999    26.8271    3.97432         12 0.0000e+00
      26400 166.466018     -0.327    264.890    13.7898   4.265968     2.7164    263.000 5.8758e-02    13.7516    35.7585  1027.9941    26.8259    3.95834         44 0.0000e+00
      26437 166.466036     -0.620    263.888    13.7944   4.266451     2.7159    262.000 5.9298e-02    13.7563    35.7592  1027.9892    26.8254    3.95636         32 0.0000e+00
      26476 166.466055     -0.641    262.878    13.7984   4.266865     2.7164    261.000 6.1156e-02    13.7605    35.7597  1027.9843    26.8250    3.95659         47 0.0000e+00
      26564 166.466097     -0.311    261.866    13.8185   4.269192     2.7170    260.000 5.8813e-02    13.7807    35.7632  1027.9782    26.8235    3.95550         31 0.0000e+00
      26665 166.466146     -0.384    260.859    13.8398   4.271525     2.7137    259.000 6.0888e-02    13.8020    35.7657  1027.9712    26.8209    3.94668         46 0.0000e+00
      26701 166.466163     -0.624    259.854    13.8470   4.272258     2.7126    258.000 6.0945e-02    13.8094    35.7663  1027.9656    26.8198    3.94353         35 0.0000e+00
      26746 166.466185     -0.547    258.846    13.8492   4.272457     2.7113    257.000 6.0235e-02    13.8117    35.7666  1027.9608    26.8195    3.94021         50 0.0000e+00
      26824 166.466223     -0.307    257.839    13.8582   4.273453     2.7100    256.000 6.0416e-02    13.8208    35.7680  1027.9555    26.8187    3.93648         36 0.0000e+00
      26912 166.466265     -0.375    256.826    13.8890   4.276945     2.7066    255.000 6.0807e-02    13.8518    35.7724  1027.9478    26.8156    3.92677         47 0.0000e+00
      26949 166.466283     -0.612    255.823    13.9267   4.281204     2.7044    254.000 6.1815e-02    13.8896    35.7776  1027.9393    26.8117    3.91888         32 0.0000e+00
      26983 166.466299     -0.701    254.819    13.9564   4.284355     2.6962    253.000 6.2262e-02    13.9193    35.7799  1027.9302    26.8072    3.89991         39 0.0000e+00
      27041 166.466327     -0.405    253.807    13.9869   4.287873     2.6719    252.000 6.6996e-02    13.9500    35.7848  1027.9229    26.8045    3.84939         33 0.0000e+00
      27111 166.466361     -0.374    252.803    14.0505   4.294838     2.6067    251.000 7.3026e-02    14.0136    35.7911  1027.9097    26.7959    3.71678         42 0.0000e+00
      27154 166.466382     -0.540    251.800    14.0606   4.295752     2.5701    250.000 7.4664e-02    14.0238    35.7907  1027.9027    26.7934    3.64403         48 0.0000e+00
      27219 166.466413     -0.362    250.783    14.0883   4.298965     2.5391    249.000 7.5034e-02    14.0516    35.7954  1027.8958    26.7911    3.58111         55 0.0000e+00
      27268 166.466437     -0.493    249.774    14.1128   4.301632     2.5203    248.000 7.6463e-02    14.0762    35.7979  1027.8880    26.7879    3.54228         45 0.0000e+00
      27315 166.466459     -0.511    248.766    14.1397   4.304591     2.5048    247.000 7.7823e-02    14.1031    35.8010  1027.8801    26.7845    3.50952         49 0.0000e+00
      27361 166.466481     -0.532    247.765    14.1577   4.306555     2.4925    246.000 7.6490e-02    14.1213    35.8030  1027.8732    26.7821    3.48385         40 0.0000e+00
      27447 166.466523     -0.272    246.755    14.1708   4.307978     2.4872    245.000 7.6128e-02    14.1345    35.8045  1027.8671    26.7805    3.47214         37 0.0000e+00
      27508 166.466552     -0.448    245.743    14.1761   4.308540     2.4831    244.000 7.8622e-02    14.1400    35.8052  1027.8620    26.7799    3.46342         51 0.0000e+00
      27559 166.466577     -0.477    244.739    14.2082   4.312228     2.4881    243.000 7.4847e-02    14.1722    35.8101  1027.8544    26.7768    3.47034         46 0.0000e+00
      27617 166.466605     -0.403    243.733    14.2401   4.315764     2.5241    242.000 6.4719e-02    14.2042    35.8138  1027.8458    26.7729    3.53747         54 0.0000e+00
      27668 166.466629     -0.483    242.726    14.2597   4.317877     2.5876    241.000 6.4004e-02    14.2238    35.8158  1027.8386    26.7702    3.65885         52 0.0000e+00
      27729 166.466659     -0.373    241.713    14.2696   4.318995     2.6364    240.000 6.2455e-02    14.2339    35.8174  1027.8332    26.7692    3.75216         51 0.0000e+00
      27819 166.466702     -0.270    240.703    14.2778   4.319784     2.6871    239.000 6.0394e-02    14.2422    35.8176  1027.8271    26.7676    3.84945         52 0.0000e+00
      27873 166.466728     -0.476    239.696    14.2807   4.320094     2.7040    238.000 5.9790e-02    14.2453    35.8181  1027.8224    26.7674    3.88149         43 0.0000e+00
      27915 166.466749     -0.573    238.691    14.2927   4.321388     2.7294    237.000 5.7445e-02    14.2574    35.8195  1027.8164    26.7658    3.92913         38 0.0000e+00
      27959 166.466770     -0.552    237.691    14.3004   4.322256     2.7531    236.000 5.7643e-02    14.2652    35.8208  1027.8114    26.7652    3.97387         43 0.0000e+00
      28004 166.466792     -0.543    236.674    14.3143   4.323814     2.7722    235.000 5.6266e-02    14.2792    35.8228  1027.8054    26.7637    4.00922         47 0.0000e+00
      28049 166.466813     -0.536    235.672    14.3364   4.326315     2.7864    234.000 5.6657e-02    14.3015    35.8260  1027.7985    26.7614    4.03440         40 0.0000e+00
      28123 166.466849     -0.323    234.661    14.3492   4.327704     2.7977    233.000 5.5788e-02    14.3144    35.8275  1027.7924    26.7598    4.05453         45 0.0000e+00
      28198 166.466885     -0.360    233.648    14.3619   4.329116     2.8023    232.000 5.5973e-02    14.3272    35.8292  1027.7864    26.7583    4.06188         52 0.0000e+00
      28241 166.466906     -0.552    232.644    14.3666   4.329624     2.8027    231.000 5.6566e-02    14.3321    35.8299  1027.7816    26.7579    4.06170         38 0.0000e+00
      28283 166.466926     -0.576    231.638    14.3722   4.330224     2.8042    230.000 5.6049e-02    14.3379    35.8307  1027.7765    26.7572    4.06362         45 0.0000e+00
      28329 166.466948     -0.527    230.630    14.3763   4.330641     2.8024    229.000 5.6945e-02    14.3421    35.8312  1027.7715    26.7567    4.05918         50 0.0000e+00
      28380 166.466973     -0.450    229.621    14.3866   4.331809     2.8012    228.000 5.7669e-02    14.3525    35.8329  1027.7661    26.7558    4.05543         40 0.0000e+00
      28415 166.466990     -0.674    228.616    14.4050   4.333833     2.7913    227.000 6.4751e-02    14.3711    35.8350  1027.7593    26.7534    4.03435         32 0.0000e+00
      28493 166.467027     -0.296    227.604    14.4346   4.337116     2.7543    226.000 6.1483e-02    14.4008    35.8385  1027.7509    26.7497    3.95992         31 0.0000e+00
      28548 166.467054     -0.489    226.608    14.4538   4.339339     2.7251    225.000 6.3661e-02    14.4200    35.8417  1027.7448    26.7480    3.90164         43 0.0000e+00
      28597 166.467078     -0.490    225.599    14.4739   4.341580     2.6985    224.000 6.6817e-02    14.4403    35.8443  1027.7379    26.7456    3.84814         48 0.0000e+00
      28702 166.467128     -0.260    224.594    14.4870   4.343047     2.6606    223.000 6.9063e-02    14.4535    35.8462  1027.7320    26.7442    3.77354         32 0.0000e+00
      28781 166.467167     -0.355    223.571    14.4934   4.343750     2.6436    222.000 7.0145e-02    14.4601    35.8471  1027.7268    26.7435    3.73985         45 0.0000e+00
      28821 166.467186     -0.587    222.568    14.4991   4.344365     2.6381    221.000 7.0418e-02    14.4659    35.8479  1027.7218    26.7429    3.72828         41 0.0000e+00
      28872 166.467210     -0.512    221.568    14.5078   4.345298     2.6290    220.000 7.1436e-02    14.4747    35.8490  1027.7162    26.7418    3.70964         35 0.0000e+00
      29010 166.467277     -0.273    220.545    14.5535   4.350635     2.5993    219.000 7.9120e-02    14.5205    35.8564  1027.7074    26.7376    3.64849         34 0.0000e+00
      29038 166.467290     -0.661    219.547    14.5709   4.352511     2.6022    218.000 7.6700e-02    14.5381    35.8581  1027.7004    26.7351    3.65235         39 0.0000e+00
      29157 166.467348     -0.241    218.533    14.6121   4.357176     2.6127    217.000 7.8461e-02    14.5794    35.8635  1027.6910    26.7303    3.66889         41 0.0000e+00
      29232 166.467384     -0.328    217.536    14.6176   4.357742     2.6165    216.000 7.5965e-02    14.5850    35.8640  1027.6858    26.7295    3.67527         41 0.0000e+00
      29321 166.467427     -0.362    216.521    14.6271   4.358782     2.6230    215.000 7.6622e-02    14.5946    35.8653  1027.6802    26.7284    3.68667         50 0.0000e+00
      29405 166.467467     -0.338    215.541    14.6378   4.359931     2.5926    214.000 8.3801e-02    14.6054    35.8664  1027.6743    26.7269    3.62696         17 0.0000e+00
      29518 166.467522     -0.303    214.504    14.6549   4.361802     2.5339    213.000 8.5979e-02    14.6227    35.8683  1027.6674    26.7246    3.51279         55 0.0000e+00
      29602 166.467562     -0.280    213.494    14.6622   4.362621     2.5253    212.000 8.5714e-02    14.6301    35.8695  1027.6623    26.7239    3.49523         47 0.0000e+00
      29675 166.467597     -0.333    212.488    14.6696   4.363377     2.5168    211.000 8.5389e-02    14.6376    35.8701  1027.6566    26.7227    3.47789         38 0.0000e+00
      29765 166.467641     -0.266    211.483    14.6787   4.364403     2.5159    210.000 8.2281e-02    14.6469    35.8715  1027.6513    26.7218    3.47514         51 0.0000e+00
      29839 166.467676     -0.366    210.474    14.6853   4.365103     2.5222    209.000 8.0586e-02    14.6536    35.8724  1027.6460    26.7210    3.48624         50 0.0000e+00
      29907 166.467709     -0.333    209.474    14.6933   4.365986     2.5298    208.000 7.7316e-02    14.6617    35.8735  1027.6407    26.7201    3.49973         60 0.0000e+00
      29974 166.467742     -0.378    208.462    14.6988   4.366600     2.5404    207.000 7.6397e-02    14.6675    35.8744  1027.6357    26.7196    3.51916         50 0.0000e+00
      30158 166.467830     -0.229    207.444    14.7176   4.368749     2.5637    206.000 7.5385e-02    14.6864    35.8773  1027.6293    26.7176    3.56189         31 0.0000e+00
      30201 166.467851     -0.646    206.450    14.7248   4.369580     2.5661    205.000 7.7381e-02    14.6936    35.8788  1027.6244    26.7172    3.56541         30 0.0000e+00
      30326 166.467911     -0.571    205.443    14.7438   4.371742     2.5843    204.000 7.2468e-02    14.7128    35.8815  1027.6178    26.7151    3.59839         50 0.0000e+00
      30449 166.467971     -0.455    204.434    14.7720   4.375110     2.6082    203.000 6.8496e-02    14.7411    35.8869  1027.6113    26.7130    3.64143         58 0.0000e+00
      30520 166.468005     -0.320    203.422    14.7955   4.377781     2.6267    202.000 7.0072e-02    14.7647    35.8902  1027.6041    26.7104    3.67456         51 0.0000e+00
      30658 166.468071     -0.252    202.413    14.8306   4.381857     2.6563    201.000 6.6318e-02    14.7999    35.8957  1027.5961    26.7070    3.72781         56 0.0000e+00
      30726 166.468104     -0.345    201.409    14.8497   4.384141     2.6761    200.000 6.3891e-02    14.8192    35.8995  1027.5903    26.7056    3.76368         50 0.0000e+00
      30770 166.468126     -0.539    200.410    14.8727   4.386849     2.6944    199.000 6.3646e-02    14.8423    35.9035  1027.5838    26.7037    3.79614         36 0.0000e+00
      30872 166.468175     -0.359    199.393    14.9226   4.392621     2.7250    198.000 6.1323e-02    14.8923    35.9109  1027.5739    26.6984    3.85002         53 0.0000e+00
      30948 166.468211     -0.474    198.380    14.9650   4.397666     2.7427    197.000 6.3519e-02    14.9348    35.9185  1027.5658    26.6949    3.87978         35 0.0000e+00
      30980 166.468227     -0.700    197.382    14.9853   4.399853     2.7470    196.000 6.1795e-02    14.9552    35.9203  1027.5582    26.6917    3.88588         35 0.0000e+00
      31056 166.468263     -0.296    196.379    15.0028   4.401864     2.7586    195.000 6.0844e-02    14.9728    35.9230  1027.5519    26.6899    3.90614         43 0.0000e+00
      31110 166.468290     -0.485    195.363    15.0117   4.402843     2.7662    194.000 6.0283e-02    14.9819    35.9242  1027.5463    26.6888    3.91933         49 0.0000e+00
      31209 166.468337     -0.272    194.357    15.0375   4.405858     2.7798    193.000 5.9685e-02    15.0077    35.9284  1027.5394    26.6864    3.94248         27 0.0000e+00
      31283 166.468373     -0.416    193.345    15.0568   4.408062     2.7894    192.000 5.8848e-02    15.0272    35.9312  1027.5327    26.6842    3.95860         47 0.0000e+00
      31325 166.468393     -0.556    192.345    15.0717   4.409826     2.7968    191.000 5.7807e-02    15.0422    35.9341  1027.5272    26.6831    3.97080         42 0.0000e+00
      31381 166.468420     -0.415    191.332    15.0971   4.412830     2.8158    190.000 5.5762e-02    15.0678    35.9385  1027.5204    26.6809    4.00427         60 0.0000e+00
      31426 166.468442     -0.531    190.321    15.1438   4.418427     2.8454    189.000 5.3807e-02    15.1146    35.9471  1027.5120    26.6771    4.05590         32 0.0000e+00
      31456 166.468456     -0.766    189.317    15.1705   4.421479     2.8740    188.000 5.2770e-02    15.1413    35.9509  1027.5045    26.6740    4.10733         26 0.0000e+00
      31487 166.468471     -0.821    188.319    15.1775   4.422158     2.8988    187.000 5.1767e-02    15.1486    35.9510  1027.4986    26.6725    4.15298         33 0.0000e+00
      31561 166.468507     -0.341    187.317    15.1877   4.423396     2.9303    186.000 5.1387e-02    15.1589    35.9533  1027.4936    26.6720    4.21104         41 0.0000e+00
      31620 166.468536     -0.467    186.289    15.2023   4.425070     2.9482    185.000 5.1684e-02    15.1736    35.9556  1027.4876    26.6705    4.24304         35 0.0000e+00
      31649 166.468549     -0.762    185.286    15.2149   4.426415     2.9542    184.000 5.0187e-02    15.1864    35.9567  1027.4811    26.6684    4.25284         26 0.0000e+00
      31675 166.468562     -0.875    184.286    15.2204   4.427046     2.9585    183.000 5.0857e-02    15.1920    35.9577  1027.4763    26.6680    4.25987         26 0.0000e+00
      31705 166.468577     -0.858    183.281    15.2290   4.428019     2.9614    182.000 5.0875e-02    15.2007    35.9592  1027.4710    26.6672    4.26391         33 0.0000e+00
      31777 166.468611     -0.298    182.269    15.2453   4.429897     2.9689    181.000 4.9631e-02    15.2171    35.9617  1027.4648    26.6655    4.27625         44 0.0000e+00
      31830 166.468637     -0.552    181.262    15.2577   4.431297     2.9727    180.000 5.0246e-02    15.2297    35.9635  1027.4589    26.6640    4.28159         34 0.0000e+00
      31890 166.468666     -0.406    180.252    15.2662   4.432290     2.9763    179.000 5.0760e-02    15.2384    35.9651  1027.4538    26.6633    4.28717         58 0.0000e+00
      31966 166.468702     -0.324    179.246    15.3299   4.439729     2.9738    178.000 5.5218e-02    15.3021    35.9748  1027.4423    26.6565    4.27638         58 0.0000e+00
      32023 166.468730     -0.444    178.238    15.3596   4.443028     2.9639    177.000 5.4888e-02    15.3319    35.9779  1027.4335    26.6522    4.25469         55 0.0000e+00
      32119 166.468776     -0.256    177.227    15.3821   4.445586     2.9372    176.000 5.6311e-02    15.3546    35.9809  1027.4262    26.6494    4.20186         23 0.0000e+00
      32197 166.468814     -0.366    176.223    15.3933   4.446754     2.9172    175.000 5.6781e-02    15.3660    35.9816  1027.4198    26.6474    4.16283         58 0.0000e+00
      32300 166.468863     -0.224    175.213    15.3957   4.446960     2.9090    174.000 5.8420e-02    15.3685    35.9817  1027.4149    26.6470    4.14665         26 0.0000e+00
      32445 166.468933     -0.176    174.199    15.3995   4.447311     2.8952    173.000 6.0412e-02    15.3725    35.9818  1027.4096    26.6461    4.11994         49 0.0000e+00
      32537 166.468978     -0.417    173.206    15.4006   4.447384     2.8898    172.000 6.0217e-02    15.3737    35.9819  1027.4051    26.6459    4.10914         54 0.0000e+00
      32647 166.469031     -0.278    172.193    15.4066   4.448059     2.8836    171.000 6.0865e-02    15.3799    35.9829  1027.4000    26.6453    4.09645         38 0.0000e+00
      32735 166.469073     -0.382    171.177    15.4167   4.449177     2.8751    170.000 6.2228e-02    15.3901    35.9843  1027.3943    26.6440    4.07905         42 0.0000e+00
      32768 166.469089     -0.638    170.187    15.4377   4.451595     2.8635    169.000 6.6275e-02    15.4112    35.9874  1027.3875    26.6417    4.05510         30 0.0000e+00
      32816 166.469112     -0.596    169.202    15.4829   4.456455     2.8279    168.000 7.6731e-02    15.4565    35.9904  1027.3751    26.6338    3.98418         26 0.0000e+00
      32942 166.469173     -0.285    168.162    15.5930   4.469263     2.7474    167.000 8.1954e-02    15.5667    36.0059  1027.3573    26.6208    3.82434         28 0.0000e+00
      33033 166.469217     -0.282    167.157    15.6318   4.473630     2.7203    166.000 8.3065e-02    15.6056    36.0103  1027.3474    26.6154    3.77034         40 0.0000e+00
      33178 166.469287     -0.155    166.134    15.6390   4.474403     2.7148    165.000 8.5410e-02    15.6129    36.0112  1027.3419    26.6144    3.75901         14 0.0000e+00
      33267 166.469330     -0.361    165.174    15.6499   4.475579     2.7128    164.000 8.2997e-02    15.6240    36.0121  1027.3359    26.6126    3.75392         27 0.0000e+00
      33389 166.469388     -0.240    164.116    15.6619   4.476956     2.7136    163.000 8.6117e-02    15.6361    36.0141  1027.3299    26.6114    3.75404         21 0.0000e+00
      33458 166.469422     -0.375    163.131    15.6673   4.477514     2.7115    162.000 8.5073e-02    15.6416    36.0146  1027.3248    26.6105    3.74921         63 0.0000e+00
      33582 166.469481     -0.218    162.127    15.6896   4.480106     2.7103    161.000 8.6211e-02    15.6641    36.0180  1027.3178    26.6080    3.74469         34 0.0000e+00
      33658 166.469518     -0.450    161.115    15.7061   4.482028     2.7104    160.000 8.8359e-02    15.6808    36.0206  1027.3116    26.6062    3.74315         37 0.0000e+00
      33712 166.469544     -0.527    160.129    15.7161   4.483112     2.7093    159.000 8.7291e-02    15.6909    36.0217  1027.3057    26.6047    3.73985         29 0.0000e+00
      33836 166.469604     -0.332    159.122    15.7295   4.484659     2.7111    158.000 8.7396e-02    15.7044    36.0238  1027.2998    26.6033    3.74175         45 0.0000e+00
      33882 166.469626     -0.557    158.092    15.7361   4.485408     2.7109    157.000 8.5899e-02    15.7112    36.0250  1027.2947    26.6026    3.74040         37 0.0000e+00
      35158 166.470242     -0.295    157.094    15.7717   4.489632     2.7145    156.000 8.6800e-02    15.7469    36.0309  1027.2866    26.5991    3.74387         65 0.0000e+00
      35300 166.470310     -0.346    156.068    15.7824   4.490829     2.7164    155.000 8.7107e-02    15.7578    36.0323  1027.2807    26.5976    3.74610         50 0.0000e+00
      35327 166.470323     -0.559    155.079    15.8187   4.495165     2.7158    154.000 8.9540e-02    15.7942    36.0386  1027.2728    26.5942    3.74164         43 0.0000e+00
      35376 166.470347     -0.495    154.061    15.8412   4.497728     2.7166    153.000 8.9249e-02    15.8168    36.0415  1027.2653    26.5913    3.74097         43 0.0000e+00
      35463 166.470389     -0.292    153.064    15.9089   4.505911     2.7131    152.000 9.1209e-02    15.8845    36.0538  1027.2547    26.5851    3.72893         42 0.0000e+00
      35539 166.470425     -0.327    152.060    15.9646   4.512298     2.7140    151.000 9.6187e-02    15.9404    36.0607  1027.2426    26.5776    3.72597         55 0.0000e+00
      35609 166.470459     -0.347    151.059    16.0197   4.519480     2.7181    150.000 9.5253e-02    15.9957    36.0752  1027.2366    26.5761    3.72877         50 0.0000e+00
      35652 166.470480     -0.546    150.050    16.1908   4.539643     2.7217    149.000 9.9412e-02    16.1667    36.1003  1027.2114    26.5558    3.72222         42 0.0000e+00
      35690 166.470498     -0.642    149.022    16.2919   4.552215     2.7248    148.000 9.9220e-02    16.2678    36.1210  1027.1990    26.5481    3.71988         30 0.0000e+00
      35790 166.470546     -0.370    148.020    16.3700   4.560752     2.7320    147.000 1.0359e-01    16.3460    36.1264  1027.1803    26.5341    3.72690         49 0.0000e+00
      35873 166.470586     -0.577    147.006    16.4316   4.568493     2.7373    146.000 1.0447e-01    16.4078    36.1397  1027.1715    26.5299    3.73163         30 0.0000e+00
      35901 166.470600     -0.825    146.001    16.4566   4.571637     2.7396    145.000 1.0422e-01    16.4328    36.1454  1027.1656    26.5284    3.73341         25 0.0000e+00
      35930 166.470614     -0.867    144.999    16.4999   4.576911     2.7416    144.000 1.0417e-01    16.4763    36.1534  1027.1570    26.5243    3.73322         32 0.0000e+00
      36022 166.470658     -0.324    143.988    16.6685   4.597796     2.7631    143.000 1.2361e-01    16.6449    36.1859  1027.1373    26.5095    3.75936         39 0.0000e+00
      36097 166.470695     -0.455    143.003    16.8070   4.614587     2.7813    142.000 1.1716e-01    16.7835    36.2092  1027.1178    26.4946    3.78182         50 0.0000e+00
      36159 166.470725     -0.382    141.976    16.8589   4.620919     2.7926    141.000 1.1580e-01    16.8354    36.2186  1027.1080    26.4893    3.79786         49 0.0000e+00
      36242 166.470764     -0.302    140.965    16.9479   4.632189     2.8054    140.000 1.2152e-01    16.9245    36.2377  1027.0968    26.4828    3.81387         58 0.0000e+00
      36294 166.470789     -0.462    139.962    16.9601   4.633562     2.8098    139.000 1.2260e-01    16.9368    36.2392  1027.0906    26.4810    3.82030         48 0.0000e+00
      36349 166.470816     -0.443    138.951    16.9798   4.636104     2.8158    138.000 1.1696e-01    16.9567    36.2442  1027.0852    26.4800    3.82915         47 0.0000e+00
      36411 166.470846     -0.374    138.009    17.1501   4.657935     2.8389    137.000 1.1461e-01    17.1270    36.2823  1027.0689    26.4683    3.85736         50 0.0000e+00
      36459 166.470869     -0.553    136.937    17.3141   4.677691     2.8724    136.000 1.1655e-01    17.2911    36.3077  1027.0438    26.4482    3.90472         38 0.0000e+00
      36506 166.470892     -0.515    135.934    17.3549   4.682461     2.8945    135.000 1.0763e-01    17.3320    36.3130  1027.0334    26.4424    3.94084         45 0.0000e+00
      36601 166.470938     -0.220    134.923    17.4190   4.691108     2.9215    134.000 9.9867e-02    17.3962    36.3311  1027.0272    26.4406    3.98358         34 0.0000e+00
      36641 166.470957     -0.501    133.976    17.4497   4.694918     2.9382    133.000 9.9316e-02    17.4270    36.3371  1027.0200    26.4377    4.01072         35 0.0000e+00
      36677 166.470974     -0.698    132.912    17.4896   4.699780     2.9470    132.000 1.0448e-01    17.4670    36.3439  1027.0108    26.4332    4.02267         33 0.0000e+00
      36721 166.470995     -0.624    131.902    17.5006   4.701141     2.9543    131.000 1.0029e-01    17.4782    36.3462  1027.0054    26.4322    4.03440         35 0.0000e+00
      36858 166.471061     -0.255    130.899    17.5699   4.710034     2.9714    130.000 9.8311e-02    17.5476    36.3616  1026.9958    26.4271    4.05884         32 0.0000e+00
      36881 166.471072     -0.740    129.888    17.6074   4.714576     2.9775    129.000 9.5952e-02    17.5853    36.3678  1026.9868    26.4226    4.06624         35 0.0000e+00
      36912 166.471088     -0.736    128.878    17.6754   4.724641     2.9918    128.000 9.3072e-02    17.6534    36.3943  1026.9859    26.4262    4.08551         28 0.0000e+00
      36938 166.471100     -0.874    127.871    17.8529   4.745625     3.0098    127.000 8.5095e-02    17.8309    36.4171  1026.9548    26.3999    4.10309         25 0.0000e+00
      36963 166.471112     -0.979    126.865    17.9466   4.757803     3.0262    126.000 8.4822e-02    17.9247    36.4385  1026.9434    26.3931    4.12400         26 0.0000e+00
      36992 166.471126     -0.894    125.861    18.0055   4.764608     3.0370    125.000 9.4906e-02    17.9837    36.4449  1026.9292    26.3833    4.13803         32 0.0000e+00
      37032 166.471146     -0.628    124.852    18.0323   4.767712     3.0421    124.000 9.4547e-02    18.0106    36.4480  1026.9205    26.3790    4.14436         51 0.0000e+00
      37086 166.471171     -0.434    123.845    18.0866   4.774943     3.0444    123.000 9.8659e-02    18.0651    36.4620  1026.9131    26.3761    4.14331         46 0.0000e+00
      37132 166.471194     -0.528    122.834    18.1427   4.781682     3.0501    122.000 1.0351e-01    18.1213    36.4701  1026.9008    26.3683    4.14835         45 0.0000e+00
      37175 166.471214     -0.532    121.844    18.2041   4.789770     3.0595    121.000 1.0122e-01    18.1828    36.4850  1026.8924    26.3644    4.15937         31 0.0000e+00
      37207 166.471230     -0.723    120.832    18.2759   4.799039     3.0667    120.000 9.7218e-02    18.2548    36.5007  1026.8818    26.3583    4.16575         27 0.0000e+00
      37237 166.471244     -0.803    119.825    18.3500   4.808312     3.0773    119.000 9.3431e-02    18.3290    36.5143  1026.8690    26.3501    4.17782         30 0.0000e+00
      37271 166.471261     -0.753    118.811    18.4297   4.817832     3.0875    118.000 9.5309e-02    18.4087    36.5250  1026.8526    26.3382    4.18887         35 0.0000e+00
      37313 166.471281     -0.581    117.806    18.4597   4.821431     3.0961    117.000 9.7168e-02    18.4389    36.5293  1026.8439    26.3339    4.20098         41 0.0000e+00
      37358 166.471303     -0.531    116.795    18.4881   4.824623     3.1006    116.000 1.0469e-01    18.4675    36.5317  1026.8340    26.3284    4.20610         43 0.0000e+00
      37398 166.471322     -0.592    115.800    18.5148   4.827578     3.0995    115.000 1.0835e-01    18.4943    36.5335  1026.8242    26.3230    4.20147         32 0.0000e+00
      37431 166.471338     -0.716    114.784    18.5509   4.832134     3.1016    114.000 1.0745e-01    18.5306    36.5405  1026.8160    26.3192    4.20165         31 0.0000e+00
      37467 166.471355     -0.698    113.773    18.5896   4.837025     3.1026    113.000 1.1042e-01    18.5695    36.5480  1026.8074    26.3151    4.19961         41 0.0000e+00
      37511 166.471376     -0.548    112.766    18.6743   4.848011     3.1064    112.000 1.1951e-01    18.6543    36.5664  1026.7954    26.3076    4.19883         42 0.0000e+00
      37557 166.471398     -0.508    111.759    18.7931   4.862666     3.1103    111.000 1.2589e-01    18.7732    36.5856  1026.7751    26.2919    4.19562         40 0.0000e+00
      37588 166.471413     -0.719    110.750    18.8386   4.867996     3.1103    110.000 1.3449e-01    18.8188    36.5908  1026.7630    26.2842    4.19144         23 0.0000e+00
      37614 166.471426     -0.890    109.746    18.8517   4.869530     3.1069    109.000 1.3531e-01    18.8321    36.5925  1026.7565    26.2821    4.18388         29 0.0000e+00
      37642 166.471439     -0.893    108.737    18.8943   4.875573     3.1110    108.000 1.3536e-01    18.8748    36.6062  1026.7516    26.2816    4.18691         28 0.0000e+00
      37673 166.471454     -0.807    107.733    18.9902   4.887062     3.1132    107.000 1.3804e-01    18.9708    36.6186  1026.7319    26.2665    4.18261         34 0.0000e+00
      37735 166.471484     -0.384    106.726    19.0562   4.895306     3.1176    106.000 1.3895e-01    19.0370    36.6300  1026.7191    26.2581    4.18428         45 0.0000e+00
      37785 166.471509     -0.506    105.711    19.1963   4.913639     3.1285    105.000 1.4804e-01    19.1772    36.6606  1026.7016    26.2453    4.19135         26 0.0000e+00
      37811 166.471521     -0.814    104.709    19.3208   4.929454     3.1353    104.000 1.4834e-01    19.3017    36.6838  1026.6824    26.2306    4.19251         26 0.0000e+00
      37834 166.471532     -0.983    103.703    19.3710   4.935259     3.1364    103.000 1.4560e-01    19.3521    36.6884  1026.6684    26.2210    4.19006         24 0.0000e+00
      37859 166.471544     -1.002    102.699    19.3880   4.937249     3.1385    102.000 1.4861e-01    19.3692    36.6904  1026.6611    26.2181    4.19177         27 0.0000e+00
      37898 166.471563     -0.705    101.687    19.4077   4.939556     3.1364    101.000 1.6355e-01    19.3892    36.6927  1026.6533    26.2146    4.18593         39 0.0000e+00
      37974 166.471600     -0.310    100.678    19.4550   4.945618     3.1383    100.000 1.5565e-01    19.4366    36.7020  1026.6436    26.2094    4.18501         42 0.0000e+00
      38005 166.471614     -0.683     99.671    19.4757   4.947883     3.1377     99.000 1.5381e-01    19.4574    36.7031  1026.6346    26.2048    4.18172         23 0.0000e+00
      38028 166.471626     -0.951     98.667    19.4832   4.948767     3.1366     98.000 1.4688e-01    19.4651    36.7043  1026.6292    26.2036    4.17868         22 0.0000e+00
      38051 166.471637     -1.054     97.660    19.4925   4.950049     3.1351     97.000 1.5891e-01    19.4746    36.7072  1026.6245    26.2034    4.17489         25 0.0000e+00
      38077 166.471649     -0.996     96.657    19.5738   4.961361     3.1433     96.000 1.6240e-01    19.5560    36.7303  1026.6164    26.1997    4.18169         28 0.0000e+00
      38117 166.471669     -0.661     95.649    19.6198   4.966376     3.1475     95.000 1.6277e-01    19.6022    36.7319  1026.6011    26.1888    4.18478         51 0.0000e+00
      38183 166.471701     -0.323     94.633    19.7138   4.978817     3.1572     94.000 1.6943e-01    19.6963    36.7531  1026.5879    26.1802    4.19336         49 0.0000e+00
      38220 166.471718     -0.615     93.629    19.7760   4.986616     3.1634     93.000 1.7385e-01    19.7587    36.7636  1026.5751    26.1717    4.19835         32 0.0000e+00
      38252 166.471734     -0.758     92.624    19.8392   4.994661     3.1669     92.000 1.8209e-01    19.8221    36.7751  1026.5627    26.1638    4.19879         32 0.0000e+00
      38287 166.471751     -0.701     91.617    19.8779   4.999705     3.1712     91.000 1.6955e-01    19.8609    36.7834  1026.5543    26.1598    4.20247         38 0.0000e+00
      38326 166.471769     -0.635     90.610    19.9282   5.006074     3.1753     90.000 1.7847e-01    19.9113    36.7923  1026.5433    26.1532    4.20485         41 0.0000e+00
      38372 166.471791     -0.519     89.601    19.9912   5.014134     3.1823     89.000 1.8494e-01    19.9745    36.8041  1026.5311    26.1454    4.21113         43 0.0000e+00
      38412 166.471811     -0.581     88.595    20.0762   5.025028     3.1856     88.000 1.8151e-01    20.0596    36.8199  1026.5160    26.1348    4.20950         34 0.0000e+00
      38442 166.471826     -0.750     87.588    20.0989   5.027618     3.1874     87.000 1.8005e-01    20.0825    36.8217  1026.5069    26.1301    4.21020         28 0.0000e+00
      38472 166.471840     -0.813     86.585    20.1148   5.029724     3.1921     86.000 1.7870e-01    20.0986    36.8255  1026.5012    26.1287    4.21641         33 0.0000e+00
      38512 166.471859     -0.650     85.578    20.1265   5.031111     3.1956     85.000 1.9161e-01    20.1105    36.8271  1026.4949    26.1267    4.22075         45 0.0000e+00
      38562 166.471883     -0.462     84.565    20.1438   5.033286     3.1921     84.000 1.8768e-01    20.1280    36.8302  1026.4882    26.1244    4.21286         48 0.0000e+00
      38607 166.471905     -0.541     83.561    20.1655   5.035874     3.1960     83.000 2.1485e-01    20.1498    36.8329  1026.4801    26.1206    4.21733         43 0.0000e+00
      38652 166.471927     -0.519     82.555    20.1827   5.038252     3.1986     82.000 1.9413e-01    20.1672    36.8379  1026.4749    26.1197    4.21964         40 0.0000e+00
      38685 166.471943     -0.705     81.543    20.2375   5.045274     3.1963     81.000 2.0144e-01    20.2222    36.8480  1026.4635    26.1128    4.21088         28 0.0000e+00
      38715 166.471957     -0.797     80.544    20.2540   5.047184     3.1985     80.000 2.0600e-01    20.2388    36.8497  1026.4560    26.1096    4.21281         29 0.0000e+00
      38748 166.471973     -0.760     79.536    20.2983   5.053573     3.2065     79.000 1.9181e-01    20.2833    36.8638  1026.4504    26.1084    4.22207         36 0.0000e+00
      38796 166.471996     -0.499     78.527    20.3679   5.062160     3.2145     78.000 2.0215e-01    20.3531    36.8738  1026.4348    26.0973    4.22948         54 0.0000e+00
      38840 166.472017     -0.531     77.518    20.5040   5.081564     3.2230     77.000 2.1918e-01    20.4893    36.9142  1026.4243    26.0913    4.23203         32 0.0000e+00
      38869 166.472031     -0.790     76.511    20.6223   5.095590     3.2273     76.000 2.0151e-01    20.6077    36.9261  1026.3968    26.0682    4.22972         26 0.0000e+00
      38903 166.472048     -0.755     75.512    20.6538   5.099529     3.2312     75.000 2.1364e-01    20.6394    36.9311  1026.3877    26.0634    4.23321         46 0.0000e+00
      38966 166.472078     -0.341     74.493    20.7230   5.108859     3.2393     74.000 2.2053e-01    20.7088    36.9472  1026.3767    26.0569    4.24055         52 0.0000e+00
      39009 166.472099     -0.569     73.487    20.8636   5.125864     3.2438     73.000 2.2076e-01    20.8495    36.9636  1026.3463    26.0309    4.23673         29 0.0000e+00
      39039 166.472113     -0.744     72.492    20.8891   5.129110     3.2440     72.000 2.2822e-01    20.8751    36.9682  1026.3384    26.0274    4.23452         31 0.0000e+00
      39070 166.472128     -0.808     71.478    20.9400   5.136734     3.2489     71.000 2.2179e-01    20.9263    36.9860  1026.3336    26.0270    4.23793         31 0.0000e+00
      39723 166.472443     -0.578     70.474    21.2779   5.175029     3.2684     70.000 2.5082e-01    21.2642    37.0029  1026.2486    25.9467    4.24427         36 0.0000e+00
      40067 166.472609     -0.726     69.468    21.3832   5.188566     3.2800     69.000 2.4565e-01    21.3696    37.0212  1026.2289    25.9314    4.25476         30 0.0000e+00
      40110 166.472630     -0.629     68.460    21.3991   5.190118     3.2855     68.000 2.7833e-01    21.3857    37.0204  1026.2195    25.9263    4.26203         50 0.0000e+00
      40156 166.472652     -0.501     67.447    21.5206   5.206189     3.2994     67.000 2.5480e-01    21.5074    37.0447  1026.1996    25.9108    4.27474         38 0.0000e+00
      40193 166.472670     -0.653     66.444    21.7838   5.237563     3.3188     66.000 2.6126e-01    21.7706    37.0692  1026.1399    25.8558    4.28615         37 0.0000e+00
      40235 166.472690     -0.582     65.436    21.9858   5.262865     3.3369     65.000 2.6274e-01    21.9727    37.0973  1026.0998    25.8201    4.29948         42 0.0000e+00
      40273 166.472708     -0.615     64.429    22.1365   5.282407     3.3464     64.000 2.6554e-01    22.1236    37.1233  1026.0723    25.7972    4.30265         34 0.0000e+00
      40306 166.472724     -0.722     63.421    22.3125   5.304499     3.3593     63.000 2.4460e-01    22.2997    37.1476  1026.0361    25.7654    4.30958         34 0.0000e+00
      40340 166.472741     -0.715     62.419    22.4755   5.325659     3.3743     62.000 2.6903e-01    22.4628    37.1754  1026.0061    25.7398    4.32051         33 0.0000e+00
      40389 166.472764     -0.518     61.411    22.5763   5.336750     3.3762     61.000 2.7963e-01    22.5639    37.1769  1025.9738    25.7119    4.31569         57 0.0000e+00
      40453 166.472795     -0.363     60.399    22.6764   5.350102     3.3896     60.000 2.7673e-01    22.6641    37.1966  1025.9554    25.6979    4.32885         42 0.0000e+00
      40488 166.472812     -0.653     59.396    22.9903   5.388244     3.4039     59.000 2.9336e-01    22.9780    37.2280  1025.8839    25.6309    4.32744         33 0.0000e+00
      40525 166.472830     -0.672     58.391    23.0653   5.396145     3.4101     58.000 3.2783e-01    23.0533    37.2262  1025.8562    25.6076    4.33150         41 0.0000e+00
      40575 166.472854     -0.474     57.382    23.0644   5.394801     3.4131     57.000 3.6059e-01    23.0525    37.2169  1025.8451    25.6008    4.33595         51 0.0000e+00
      40621 166.472876     -0.522     56.373    23.0605   5.393305     3.4175     56.000 3.4219e-01    23.0488    37.2089  1025.8358    25.5958    4.34290         39 0.0000e+00
      40657 166.472894     -0.650     55.365    23.0510   5.390855     3.4177     55.000 3.4983e-01    23.0396    37.1982  1025.8261    25.5904    4.34358         33 0.0000e+00
      40688 166.472909     -0.754     54.359    23.0336   5.387341     3.4184     54.000 3.6649e-01    23.0224    37.1859  1025.8175    25.5860    4.34558         30 0.0000e+00
      40717 166.472922     -0.829     53.356    23.0179   5.384039     3.4240     53.000 3.5972e-01    23.0069    37.1739  1025.8087    25.5814    4.35543         27 0.0000e+00
      40747 166.472937     -0.815     52.353    23.0184   5.382468     3.4308     52.000 3.8037e-01    23.0076    37.1617  1025.7949    25.5719    4.36598         34 0.0000e+00
      40801 166.472963     -0.485     51.344    23.0202   5.382267     3.4354     51.000 4.0247e-01    23.0096    37.1589  1025.7879    25.5692    4.37271         54 0.0000e+00
      41394 166.473249     -0.227     50.334    23.0283   5.381909     3.4423     50.000 4.1328e-01    23.0179    37.1496  1025.7742    25.5598    4.38277         69 0.0000e+00
      41506 166.473303     -0.413     49.324    23.0299   5.382035     3.4427     49.000 4.0822e-01    23.0197    37.1496  1025.7693    25.5592    4.38278         47 0.0000e+00
      41540 166.473319     -0.618     48.321    23.0325   5.382264     3.4455     48.000 4.1183e-01    23.0226    37.1495  1025.7641    25.5583    4.38638         36 0.0000e+00
      41583 166.473340     -0.574     47.315    23.0339   5.382377     3.4481     47.000 4.6169e-01    23.0242    37.1495  1025.7594    25.5579    4.38986         53 0.0000e+00
      41652 166.473373     -0.308     46.304    23.0326   5.382132     3.4450     46.000 4.2119e-01    23.0230    37.1491  1025.7551    25.5579    4.38444         61 0.0000e+00
      41694 166.473394     -0.559     45.291    23.0332   5.382112     3.4484     45.000 3.9809e-01    23.0239    37.1488  1025.7503    25.5574    4.38928         27 0.0000e+00
      41716 166.473404     -0.890     44.291    23.0334   5.382063     3.4509     44.000 3.7754e-01    23.0243    37.1486  1025.7458    25.5571    4.39259         20 0.0000e+00
      41737 166.473414     -1.115     43.288    23.0335   5.381956     3.4523     43.000 3.8631e-01    23.0246    37.1480  1025.7410    25.5566    4.39427         21 0.0000e+00
      41759 166.473425     -1.149     42.288    23.0338   5.381872     3.4521     42.000 4.0779e-01    23.0250    37.1475  1025.7362    25.5561    4.39335         25 0.0000e+00
      41808 166.473448     -0.616     41.275    23.0287   5.380869     3.4530     41.000 3.9985e-01    23.0202    37.1443  1025.7309    25.5551    4.39467         42 0.0000e+00
      41877 166.473482     -0.369     40.260    23.0236   5.379847     3.4505     40.000 3.4835e-01    23.0153    37.1411  1025.7255    25.5540    4.39053         35 0.0000e+00
      41905 166.473495     -0.750     39.258    23.0200   5.379210     3.4575     39.000 3.6051e-01    23.0119    37.1395  1025.7211    25.5538    4.40137         25 0.0000e+00
      41931 166.473508     -0.918     38.255    23.0204   5.379252     3.4536     38.000 3.6325e-01    23.0125    37.1399  1025.7169    25.5540    4.39457         29 0.0000e+00
      41963 166.473523     -0.808     37.248    23.0189   5.379009     3.4520     37.000 3.6205e-01    23.0113    37.1395  1025.7127    25.5540    4.39157         35 0.0000e+00
      42002 166.473542     -0.622     36.239    23.0134   5.377998     3.4562     36.000 3.7819e-01    23.0059    37.1368  1025.7079    25.5535    4.39803         42 0.0000e+00
      42043 166.473562     -0.585     35.231    23.0036   5.376153     3.4524     35.000 3.5925e-01    22.9964    37.1310  1025.7020    25.5519    4.39237         40 0.0000e+00
      42080 166.473580     -0.645     34.223    23.0004   5.375581     3.4539     34.000 3.3751e-01    22.9934    37.1296  1025.6975    25.5517    4.39436         31 0.0000e+00
      42110 166.473594     -0.764     33.221    22.9934   5.374253     3.4514     33.000 3.3928e-01    22.9865    37.1256  1025.6922    25.5507    4.39047         32 0.0000e+00
      42146 166.473612     -0.708     32.215    22.9816   5.372431     3.4544     32.000 3.5088e-01    22.9750    37.1217  1025.6883    25.5510    4.39560         43 0.0000e+00
      42201 166.473638     -0.417     31.203    22.9799   5.372105     3.4547     31.000 2.9942e-01    22.9735    37.1209  1025.6839    25.5509    4.39557         56 0.0000e+00
      42242 166.473658     -0.555     30.195    22.9734   5.370964     3.4508     30.000 3.1394e-01    22.9672    37.1179  1025.6791    25.5504    4.38928         29 0.0000e+00
      42268 166.473670     -0.829     29.188    22.9708   5.370490     3.4525     29.000 3.2463e-01    22.9648    37.1168  1025.6747    25.5503    4.39163         23 0.0000e+00
      42291 166.473681     -1.008     28.189    22.9691   5.370164     3.4548     28.000 3.0800e-01    22.9633    37.1160  1025.6703    25.5502    4.39493         25 0.0000e+00
      42318 166.473694     -0.978     27.184    22.9678   5.369935     3.4595     27.000 3.1299e-01    22.9623    37.1157  1025.6660    25.5502    4.40188         31 0.0000e+00
      42358 166.473714     -0.623     26.172    22.9677   5.369909     3.4573     26.000 2.9824e-01    22.9623    37.1159  1025.6619    25.5504    4.39780         46 0.0000e+00
      42403 166.473736     -0.537     25.167    22.9651   5.369395     3.4614     25.000 2.9199e-01    22.9599    37.1145  1025.6572    25.5500    4.40390         42 0.0000e+00
      42447 166.473757     -0.551     24.156    22.9600   5.368444     3.4594     24.000 2.6584e-01    22.9551    37.1118  1025.6522    25.5493    4.40060         42 0.0000e+00
      42485 166.473775     -0.628     23.152    22.9415   5.365147     3.4610     23.000 2.6067e-01    22.9367    37.1021  1025.6460    25.5473    4.40420         36 0.0000e+00
      42526 166.473795     -0.605     22.148    22.9364   5.364425     3.4612     22.000 2.4808e-01    22.9319    37.1011  1025.6424    25.5480    4.40440         47 0.0000e+00
      43008 166.474027     -0.297     21.140    22.9350   5.364065     3.4634     21.000 2.4506e-01    22.9307    37.0998  1025.6374    25.5474    4.40742         53 0.0000e+00
      43310 166.474173     -0.423     20.131    22.9295   5.363133     3.4611     20.000 2.5721e-01    22.9254    37.0976  1025.6330    25.5472    4.40361         55 0.0000e+00
      43354 166.474194     -0.499     19.125    22.9273   5.362708     3.4680     19.000 2.2608e-01    22.9233    37.0966  1025.6285    25.5470    4.41411         45 0.0000e+00
      43397 166.474215     -0.554     18.118    22.9242   5.362182     3.4641     18.000 2.2943e-01    22.9205    37.0954  1025.6241    25.5469    4.40769         42 0.0000e+00
      43436 166.474234     -0.614     17.111    22.9173   5.360846     3.4679     17.000 2.0581e-01    22.9137    37.0912  1025.6187    25.5457    4.41374         34 0.0000e+00
      43474 166.474252     -0.646     16.109    22.9030   5.358379     3.4659     16.000 2.0519e-01    22.8997    37.0844  1025.6133    25.5446    4.41112         46 0.0000e+00
      43527 166.474278     -0.431     15.098    22.8904   5.356137     3.4683     15.000 1.8519e-01    22.8873    37.0779  1025.6077    25.5433    4.41543         52 0.0000e+00
      43576 166.474301     -0.499     14.092    22.8676   5.352065     3.4734     14.000 1.7604e-01    22.8647    37.0659  1025.6008    25.5407    4.42500         49 0.0000e+00
      43623 166.474324     -0.517     13.085    22.8418   5.347399     3.4762     13.000 1.6735e-01    22.8391    37.0516  1025.5931    25.5373    4.43124         46 0.0000e+00
      43668 166.474346     -0.534     12.077    22.7945   5.338298     3.4761     12.000 1.5941e-01    22.7920    37.0209  1025.5791    25.5276    4.43476         40 0.0000e+00
      43706 166.474364     -0.607     11.072    22.7530   5.329416     3.4750     11.000 1.5503e-01    22.7508    36.9870  1025.5610    25.5138    4.43642         35 0.0000e+00
      43737 166.474379     -0.757     10.066    22.6741   5.313440     3.4698     10.000 1.5498e-01    22.6721    36.9291  1025.5354    25.4925    4.43490         28 0.0000e+00
      43767 166.474393     -0.814      9.062    22.6204   5.301672     3.4693      9.000 1.4467e-01    22.6186    36.8827  1025.5113    25.4726    4.43861         31 0.0000e+00
      43805 166.474412     -0.668      8.054    22.5868   5.293687     3.4731      8.000 1.3648e-01    22.5852    36.8489  1025.4910    25.4566    4.44762         43 0.0000e+00
      43848 166.474433     -0.547      7.045    22.5840   5.291566     3.4716      7.000 1.3265e-01    22.5826    36.8349  1025.4768    25.4467    4.44512         42 0.0000e+00
      43887 166.474451     -0.620      6.040    22.5990   5.293100     3.4755      6.000 1.2397e-01    22.5978    36.8346  1025.4679    25.4421    4.44964         38 0.0000e+00
      43929 166.474471     -0.584      5.032    22.6003   5.293419     3.4797      5.000 1.2026e-01    22.5992    36.8365  1025.4646    25.4431    4.45558         43 0.0000e+00
      43965 166.474489     -0.613      4.023    22.5976   5.292476     3.4850      4.000 1.2185e-01    22.5968    36.8317  1025.4573    25.4402    4.46392         26 0.0000e+00
      43990 166.474501     -0.872      3.023    22.5972   5.292266     3.4833      3.000 1.1678e-01    22.5966    36.8307  1025.4524    25.4395    4.46058         24 0.0000e+00
      44016 166.474513     -0.973      2.020    22.5971   5.292229     3.4786      2.000 8.3561e-02    22.5967    36.8309  1025.4482    25.4396    4.45242         27 0.0000e+00
      44100 166.474554     -0.211      1.012    22.6126   5.293947     3.4817      1.000 3.9741e-02    22.6124    36.8316  1025.4399    25.4356    4.45569         44 0.0000e+00
